participant,blockID,trialID,condition,screenID,leftImage,rightImage,cue,congruency,correctObject,response,acc,rt
14,1,1,pre,memory,image259,image331,left,incongruent,NA,right,TRUE,1355.9000000059605
14,1,1,pre,memory,image21,image405,left,incongruent,NA,right,TRUE,1508.6000000014901
14,1,1,pre,memory,image306,image222,right,incongruent,NA,left,TRUE,1202.2000000029802
14,1,1,pre,retrieval,NA,NA,NA,incongruent,image222,image306,FALSE,3208.7999999970198
14,1,1,pre,retrieval,NA,NA,NA,incongruent,image259,image21,FALSE,1983.7999999970198
14,1,1,pre,retrieval,NA,NA,NA,incongruent,image21,image222,FALSE,1694.8000000044703
14,1,2,pre,memory,image362,image140,right,congruent,NA,NULL,FALSE,NA
14,1,2,pre,memory,image401,image32,left,congruent,NA,NULL,FALSE,NA
14,1,2,pre,memory,image93,image129,right,incongruent,NA,left,TRUE,1133.1999999955297
14,1,2,pre,retrieval,NA,NA,NA,congruent,image401,image401,TRUE,4396.30000000447
14,1,2,pre,retrieval,NA,NA,NA,congruent,image140,image140,TRUE,3828.5999999940395
14,1,2,pre,retrieval,NA,NA,NA,incongruent,image129,image93,FALSE,3612.10000000149
14,1,3,pre,memory,image4,image332,left,congruent,NA,left,TRUE,1494.1000000014901
14,1,3,pre,memory,image81,image392,right,incongruent,NA,left,TRUE,1650.3000000044703
14,1,3,pre,memory,image71,image400,right,incongruent,NA,NULL,FALSE,NA
14,1,3,pre,retrieval,NA,NA,NA,incongruent,image392,image392,TRUE,4462
14,1,3,pre,retrieval,NA,NA,NA,incongruent,image400,image400,TRUE,3793
14,1,3,pre,retrieval,NA,NA,NA,congruent,image4,image4,TRUE,896.7000000029802
14,1,4,pre,memory,image146,image99,left,incongruent,NA,right,TRUE,1457.5
14,1,4,pre,memory,image213,image136,right,incongruent,NA,left,TRUE,1896.8999999985099
14,1,4,pre,memory,image34,image72,left,incongruent,NA,NULL,FALSE,NA
14,1,4,pre,retrieval,NA,NA,NA,incongruent,image136,image136,TRUE,3237.5
14,1,4,pre,retrieval,NA,NA,NA,incongruent,image146,image146,TRUE,2142.60000000149
14,1,4,pre,retrieval,NA,NA,NA,incongruent,image34,image34,TRUE,2101
14,1,5,pre,memory,image8,image391,left,congruent,NA,left,TRUE,1206.0999999940395
14,1,5,pre,memory,image279,image417,right,congruent,NA,right,TRUE,1228.6000000014901
14,1,5,pre,memory,image102,image379,left,incongruent,NA,NULL,FALSE,NA
14,1,5,pre,retrieval,NA,NA,NA,incongruent,image102,image102,TRUE,2744.7999999970198
14,1,5,pre,retrieval,NA,NA,NA,congruent,image417,image417,TRUE,1923.8000000044703
14,1,5,pre,retrieval,NA,NA,NA,congruent,image8,image8,TRUE,1476.3999999985099
14,1,6,pre,memory,image73,image300,left,congruent,NA,left,TRUE,1221
14,1,6,pre,memory,image115,image414,right,incongruent,NA,left,TRUE,1445.2999999970198
14,1,6,pre,memory,image60,image334,right,congruent,NA,NULL,FALSE,NA
14,1,6,pre,retrieval,NA,NA,NA,congruent,image334,image60,FALSE,2733.5
14,1,6,pre,retrieval,NA,NA,NA,incongruent,image414,image414,TRUE,1456.3000000044703
14,1,6,pre,retrieval,NA,NA,NA,congruent,image73,image73,TRUE,2137.7999999970198
14,1,7,pre,memory,image177,image241,right,incongruent,NA,left,TRUE,1173.5
14,1,7,pre,memory,image133,image164,left,incongruent,NA,right,TRUE,1474.0999999940395
14,1,7,pre,memory,image82,image166,left,incongruent,NA,right,TRUE,1817.3000000044703
14,1,7,pre,retrieval,NA,NA,NA,incongruent,image133,image133,TRUE,2822.6999999955297
14,1,7,pre,retrieval,NA,NA,NA,incongruent,image241,image82,FALSE,1208.2999999970198
14,1,7,pre,retrieval,NA,NA,NA,incongruent,image82,image241,FALSE,588.8000000044703
14,1,8,pre,memory,image149,image324,left,incongruent,NA,right,TRUE,1030.7999999970198
14,1,8,pre,memory,image244,image321,right,incongruent,NA,left,TRUE,1513.6000000014901
14,1,8,pre,memory,image301,image287,right,congruent,NA,right,TRUE,1649.6000000014901
14,1,8,pre,retrieval,NA,NA,NA,incongruent,image321,image321,TRUE,2186.89999999851
14,1,8,pre,retrieval,NA,NA,NA,incongruent,image149,image149,TRUE,1589.3000000044703
14,1,8,pre,retrieval,NA,NA,NA,congruent,image287,image287,TRUE,1101.8999999985099
14,1,9,pre,memory,image13,image28,right,congruent,NA,NULL,FALSE,NA
14,1,9,pre,memory,image342,image343,left,incongruent,NA,right,TRUE,1088.6999999955297
14,1,9,pre,memory,image31,image278,left,incongruent,NA,right,TRUE,1076.8999999985099
14,1,9,pre,retrieval,NA,NA,NA,congruent,image28,image28,TRUE,2498.2999999970198
14,1,9,pre,retrieval,NA,NA,NA,incongruent,image31,image342,FALSE,2940.89999999851
14,1,9,pre,retrieval,NA,NA,NA,incongruent,image342,image31,FALSE,1093.8000000044703
14,1,10,pre,memory,image161,image204,right,incongruent,NA,left,TRUE,1352.8000000044703
14,1,10,pre,memory,image364,image152,left,congruent,NA,right,FALSE,1721.8000000044703
14,1,10,pre,memory,image238,image381,right,congruent,NA,NULL,FALSE,NA
14,1,10,pre,retrieval,NA,NA,NA,congruent,image364,image364,TRUE,2319.7000000029802
14,1,10,pre,retrieval,NA,NA,NA,incongruent,image204,image204,TRUE,2015.9000000059605
14,1,10,pre,retrieval,NA,NA,NA,congruent,image381,image381,TRUE,2115.7000000029802
14,1,11,pre,memory,image156,image388,left,congruent,NA,left,TRUE,967.4000000059605
14,1,11,pre,memory,image425,image208,left,incongruent,NA,right,TRUE,1662.5
14,1,11,pre,memory,image389,image397,right,congruent,NA,right,TRUE,1469.2000000029802
14,1,11,pre,retrieval,NA,NA,NA,congruent,image156,image156,TRUE,3750.7999999970198
14,1,11,pre,retrieval,NA,NA,NA,congruent,image397,image425,FALSE,2084
14,1,11,pre,retrieval,NA,NA,NA,incongruent,image425,image397,FALSE,1404.8999999985099
14,1,12,pre,memory,image255,image299,right,incongruent,NA,left,TRUE,1175.1000000014901
14,1,12,pre,memory,image307,image14,left,incongruent,NA,right,TRUE,1295.8999999985099
14,1,12,pre,memory,image234,image370,left,congruent,NA,left,TRUE,1870
14,1,12,pre,retrieval,NA,NA,NA,congruent,image234,image307,FALSE,5395.89999999851
14,1,12,pre,retrieval,NA,NA,NA,incongruent,image299,image307,FALSE,3739.0999999940395
14,1,12,pre,retrieval,NA,NA,NA,incongruent,image307,image299,FALSE,5666
14,1,13,pre,memory,image314,image346,right,incongruent,NA,left,TRUE,1085.5999999940395
14,1,13,pre,memory,image185,image253,right,incongruent,NA,left,TRUE,1342.7000000029802
14,1,13,pre,memory,image359,image47,right,congruent,NA,left,FALSE,1586.5
14,1,13,pre,retrieval,NA,NA,NA,incongruent,image253,image253,TRUE,2530.3000000044703
14,1,13,pre,retrieval,NA,NA,NA,congruent,image47,image47,TRUE,4511
14,1,13,pre,retrieval,NA,NA,NA,incongruent,image346,image346,TRUE,1248.0999999940395
14,1,14,pre,memory,image141,image320,left,congruent,NA,NULL,FALSE,NA
14,1,14,pre,memory,image217,image237,right,incongruent,NA,NULL,FALSE,NA
14,1,14,pre,memory,image428,image50,right,congruent,NA,right,TRUE,1033.4000000059605
14,1,14,pre,retrieval,NA,NA,NA,congruent,image141,image428,FALSE,2656.5
14,1,14,pre,retrieval,NA,NA,NA,incongruent,image237,image320,FALSE,3430.7999999970198
14,1,14,pre,retrieval,NA,NA,NA,congruent,image50,image217,FALSE,978.3999999985099
14,1,15,pre,memory,image284,image2,left,incongruent,NA,NULL,FALSE,NA
14,1,15,pre,memory,image56,image171,left,incongruent,NA,right,TRUE,1568.7000000029802
14,1,15,pre,memory,image130,image151,right,congruent,NA,right,TRUE,1418.8999999985099
14,1,15,pre,retrieval,NA,NA,NA,congruent,image151,image171,FALSE,5068.39999999851
14,1,15,pre,retrieval,NA,NA,NA,incongruent,image56,image171,FALSE,1911.2000000029802
14,1,15,pre,retrieval,NA,NA,NA,incongruent,image284,image284,TRUE,355.3999999985099
14,1,16,pre,memory,image380,image356,right,congruent,NA,right,TRUE,1458.3000000044703
14,1,16,pre,memory,image216,image78,left,congruent,NA,NULL,FALSE,NA
14,1,16,pre,memory,image154,image419,left,congruent,NA,left,TRUE,1776.2999999970198
14,1,16,pre,retrieval,NA,NA,NA,congruent,image216,image78,FALSE,2786.8000000044703
14,1,16,pre,retrieval,NA,NA,NA,congruent,image154,image216,FALSE,1101.6000000014901
14,1,16,pre,retrieval,NA,NA,NA,congruent,image356,image356,TRUE,4491.69999999553
14,1,17,pre,memory,image197,image6,left,incongruent,NA,right,TRUE,1283.7000000029802
14,1,17,pre,memory,image186,image292,right,congruent,NA,right,TRUE,1367.3999999985099
14,1,17,pre,memory,image40,image421,right,congruent,NA,NULL,FALSE,NA
14,1,17,pre,retrieval,NA,NA,NA,incongruent,image197,image197,TRUE,3970.7000000029802
14,1,17,pre,retrieval,NA,NA,NA,congruent,image421,image292,FALSE,1260.5
14,1,17,pre,retrieval,NA,NA,NA,congruent,image292,image421,FALSE,2236.6999999955297
14,1,18,pre,memory,image159,image53,right,congruent,NA,right,TRUE,1339.6000000014901
14,1,18,pre,memory,image94,image426,left,congruent,NA,left,TRUE,1808.3999999985099
14,1,18,pre,memory,image135,image385,right,incongruent,NA,left,TRUE,1663.6999999955297
14,1,18,pre,retrieval,NA,NA,NA,incongruent,image385,image385,TRUE,2265.39999999851
14,1,18,pre,retrieval,NA,NA,NA,congruent,image94,image94,TRUE,2086.5
14,1,18,pre,retrieval,NA,NA,NA,congruent,image53,image53,TRUE,5826.10000000149
14,1,19,pre,memory,image399,image351,left,congruent,NA,left,TRUE,1132.2000000029802
14,1,19,pre,memory,image375,image326,left,incongruent,NA,NULL,FALSE,NA
14,1,19,pre,memory,image182,image142,right,congruent,NA,left,FALSE,1497.3999999985099
14,1,19,pre,retrieval,NA,NA,NA,congruent,image142,image142,TRUE,2955.5
14,1,19,pre,retrieval,NA,NA,NA,incongruent,image375,image375,TRUE,5541.79999999702
14,1,19,pre,retrieval,NA,NA,NA,congruent,image399,image399,TRUE,1675.7999999970198
14,1,20,pre,memory,image7,image360,left,congruent,NA,left,TRUE,1851.2000000029802
14,1,20,pre,memory,image207,image55,right,incongruent,NA,left,TRUE,1875.3999999985099
14,1,20,pre,memory,image248,image189,right,congruent,NA,NULL,FALSE,NA
14,1,20,pre,retrieval,NA,NA,NA,congruent,image7,image55,FALSE,4845.20000000298
14,1,20,pre,retrieval,NA,NA,NA,incongruent,image55,image189,FALSE,1401.7999999970198
14,1,20,pre,retrieval,NA,NA,NA,congruent,image189,image248,FALSE,3408.60000000149
14,2,1,control,memory,image254,image26,left,incongruent,NA,right,TRUE,1479
14,2,1,control,memory,image26,image62,right,congruent,NA,left,FALSE,1960.1000000014901
14,2,1,control,memory,image340,image26,left,congruent,NA,right,FALSE,1695.2999999970198
14,2,1,control,retrieval,NA,NA,NA,congruent,image62,image62,TRUE,1571.3999999985099
14,2,1,control,retrieval,NA,NA,NA,congruent,image340,image340,TRUE,2374.7999999970198
14,2,1,control,retrieval,NA,NA,NA,incongruent,image254,image254,TRUE,1016.5
14,2,2,control,memory,image26,image59,right,congruent,NA,NULL,FALSE,NA
14,2,2,control,memory,image26,image263,right,congruent,NA,left,FALSE,1781.1999999955297
14,2,2,control,memory,image26,image317,right,congruent,NA,right,TRUE,1171.7000000029802
14,2,2,control,retrieval,NA,NA,NA,congruent,image317,image317,TRUE,3954.89999999851
14,2,2,control,retrieval,NA,NA,NA,congruent,image263,image263,TRUE,1630.1999999955297
14,2,2,control,retrieval,NA,NA,NA,congruent,image59,image317,FALSE,9855.59999999404
14,2,3,control,memory,image26,image353,right,congruent,NA,right,TRUE,1681.8000000044703
14,2,3,control,memory,image68,image26,left,incongruent,NA,right,TRUE,1324.3000000044703
14,2,3,control,memory,image26,image205,right,incongruent,NA,left,TRUE,1442.1000000014901
14,2,3,control,retrieval,NA,NA,NA,congruent,image353,image353,TRUE,4321.20000000298
14,2,3,control,retrieval,NA,NA,NA,incongruent,image205,image205,TRUE,8137.80000000447
14,2,3,control,retrieval,NA,NA,NA,incongruent,image68,image68,TRUE,868.3999999985099
14,2,4,control,memory,image26,image239,right,congruent,NA,right,TRUE,1679.8999999985099
14,2,4,control,memory,image198,image26,left,congruent,NA,NULL,FALSE,NA
14,2,4,control,memory,image26,image420,right,incongruent,NA,NULL,FALSE,NA
14,2,4,control,retrieval,NA,NA,NA,congruent,image198,image198,TRUE,1702.7000000029802
14,2,4,control,retrieval,NA,NA,NA,congruent,image239,image239,TRUE,1323.3000000044703
14,2,4,control,retrieval,NA,NA,NA,incongruent,image420,image420,TRUE,6650.5
14,2,5,control,memory,image26,image168,right,congruent,NA,NULL,FALSE,NA
14,2,5,control,memory,image26,image125,right,congruent,NA,right,TRUE,1398.5
14,2,5,control,memory,image308,image26,left,congruent,NA,left,TRUE,1632.5
14,2,5,control,retrieval,NA,NA,NA,congruent,image308,image308,TRUE,2168.10000000149
14,2,5,control,retrieval,NA,NA,NA,congruent,image168,image125,FALSE,1606
14,2,5,control,retrieval,NA,NA,NA,congruent,image125,image168,FALSE,3052.3000000044703
14,2,6,control,memory,image394,image26,left,congruent,NA,left,TRUE,1618.3999999985099
14,2,6,control,memory,image193,image26,left,incongruent,NA,right,TRUE,1308
14,2,6,control,memory,image26,image232,right,incongruent,NA,left,TRUE,1511.5
14,2,6,control,retrieval,NA,NA,NA,incongruent,image193,image193,TRUE,1906
14,2,6,control,retrieval,NA,NA,NA,incongruent,image232,image232,TRUE,1259.0999999940395
14,2,6,control,retrieval,NA,NA,NA,congruent,image394,image394,TRUE,3266
14,2,7,control,memory,image26,image273,right,incongruent,NA,left,TRUE,1219.6000000014901
14,2,7,control,memory,image26,image258,right,congruent,NA,left,FALSE,1107.7999999970198
14,2,7,control,memory,image138,image26,left,congruent,NA,left,TRUE,1454.7000000029802
14,2,7,control,retrieval,NA,NA,NA,congruent,image138,image138,TRUE,2018.4000000059605
14,2,7,control,retrieval,NA,NA,NA,incongruent,image273,image273,TRUE,2164.39999999851
14,2,7,control,retrieval,NA,NA,NA,congruent,image258,image258,TRUE,4085.10000000149
14,2,8,control,memory,image241,image26,left,incongruent,NA,right,TRUE,1776.3999999985099
14,2,8,control,memory,image26,image424,right,incongruent,NA,left,TRUE,1362.5
14,2,8,control,memory,image64,image26,left,incongruent,NA,right,TRUE,1499.1999999955297
14,2,8,control,retrieval,NA,NA,NA,incongruent,image64,image64,TRUE,2099.1999999955297
14,2,8,control,retrieval,NA,NA,NA,incongruent,image424,image424,TRUE,1910.3999999985099
14,2,8,control,retrieval,NA,NA,NA,incongruent,image241,image241,TRUE,3884.4000000059605
14,2,9,control,memory,image26,image1,right,congruent,NA,right,TRUE,1319.3999999985099
14,2,9,control,memory,image338,image26,left,congruent,NA,right,FALSE,1620.9000000059605
14,2,9,control,memory,image26,image63,right,incongruent,NA,left,TRUE,1248.6000000014901
14,2,9,control,retrieval,NA,NA,NA,congruent,image1,image1,TRUE,3069.3000000044703
14,2,9,control,retrieval,NA,NA,NA,congruent,image338,NULL,FALSE,NA
14,2,9,control,retrieval,NA,NA,NA,incongruent,image63,image63,TRUE,1462.8000000044703
14,2,10,control,memory,image26,image301,right,incongruent,NA,left,TRUE,1434.1000000014901
14,2,10,control,memory,image26,image412,right,congruent,NA,left,FALSE,1321.1000000014901
14,2,10,control,memory,image26,image93,right,congruent,NA,right,TRUE,1251
14,2,10,control,retrieval,NA,NA,NA,congruent,image412,image412,TRUE,1965.1000000014901
14,2,10,control,retrieval,NA,NA,NA,incongruent,image301,image301,TRUE,3674.39999999851
14,2,10,control,retrieval,NA,NA,NA,congruent,image93,image93,TRUE,1130.3999999985099
14,2,11,control,memory,image371,image26,left,congruent,NA,right,FALSE,1460
14,2,11,control,memory,image104,image26,left,congruent,NA,left,TRUE,1842.3999999985099
14,2,11,control,memory,image413,image26,left,incongruent,NA,right,TRUE,1282.2000000029802
14,2,11,control,retrieval,NA,NA,NA,congruent,image104,image104,TRUE,1339.9000000059605
14,2,11,control,retrieval,NA,NA,NA,congruent,image371,image371,TRUE,1681
14,2,11,control,retrieval,NA,NA,NA,incongruent,image413,image413,TRUE,3172.60000000149
14,2,12,control,memory,image60,image26,left,incongruent,NA,right,TRUE,1125.5
14,2,12,control,memory,image26,image32,right,incongruent,NA,left,TRUE,1108.7999999970198
14,2,12,control,memory,image26,image39,right,congruent,NA,right,TRUE,1220.8000000044703
14,2,12,control,retrieval,NA,NA,NA,incongruent,image60,image60,TRUE,2963.89999999851
14,2,12,control,retrieval,NA,NA,NA,incongruent,image32,image32,TRUE,3303.6999999955297
14,2,12,control,retrieval,NA,NA,NA,congruent,image39,image39,TRUE,6551.79999999702
14,2,13,control,memory,image320,image26,left,incongruent,NA,right,TRUE,1740.6000000014901
14,2,13,control,memory,image26,image408,right,congruent,NA,right,TRUE,1485.2999999970198
14,2,13,control,memory,image26,image315,right,congruent,NA,right,TRUE,1666.8999999985099
14,2,13,control,retrieval,NA,NA,NA,congruent,image408,image408,TRUE,2684
14,2,13,control,retrieval,NA,NA,NA,congruent,image315,image315,TRUE,7375.20000000298
14,2,13,control,retrieval,NA,NA,NA,incongruent,image320,image320,TRUE,2956.60000000149
14,2,14,control,memory,image26,image202,right,congruent,NA,right,TRUE,1556.5
14,2,14,control,memory,image26,image264,right,congruent,NA,NULL,FALSE,NA
14,2,14,control,memory,image286,image26,left,incongruent,NA,right,TRUE,1096.3999999985099
14,2,14,control,retrieval,NA,NA,NA,congruent,image264,image202,FALSE,3089.7999999970198
14,2,14,control,retrieval,NA,NA,NA,incongruent,image286,image286,TRUE,2256.7999999970198
14,2,14,control,retrieval,NA,NA,NA,congruent,image202,image264,FALSE,1687.4000000059605
14,2,15,control,memory,image77,image26,left,incongruent,NA,right,TRUE,1462.2999999970198
14,2,15,control,memory,image26,image92,right,congruent,NA,right,TRUE,1455.5
14,2,15,control,memory,image344,image26,left,congruent,NA,left,TRUE,1476.8000000044703
14,2,15,control,retrieval,NA,NA,NA,incongruent,image77,image77,TRUE,2930.5
14,2,15,control,retrieval,NA,NA,NA,congruent,image344,image92,FALSE,4241.79999999702
14,2,15,control,retrieval,NA,NA,NA,congruent,image92,image418,FALSE,7627.69999999553
14,2,16,control,memory,image26,image330,right,incongruent,NA,left,TRUE,1131.3999999985099
14,2,16,control,memory,image26,image357,right,congruent,NA,right,TRUE,1306.8999999985099
14,2,16,control,memory,image404,image26,left,congruent,NA,right,FALSE,986
14,2,16,control,retrieval,NA,NA,NA,incongruent,image330,image330,TRUE,3241.8000000044703
14,2,16,control,retrieval,NA,NA,NA,congruent,image357,image357,TRUE,3244.89999999851
14,2,16,control,retrieval,NA,NA,NA,congruent,image404,image357,FALSE,9244.79999999702
14,2,17,control,memory,image260,image26,left,incongruent,NA,right,TRUE,1388
14,2,17,control,memory,image37,image26,left,congruent,NA,left,TRUE,1171.6000000014901
14,2,17,control,memory,image294,image26,left,congruent,NA,NULL,FALSE,NA
14,2,17,control,retrieval,NA,NA,NA,congruent,image37,image260,FALSE,3189.39999999851
14,2,17,control,retrieval,NA,NA,NA,congruent,image294,image76,FALSE,6195.70000000298
14,2,17,control,retrieval,NA,NA,NA,incongruent,image260,image294,FALSE,2093.0999999940395
14,2,18,control,memory,image296,image26,left,congruent,NA,left,TRUE,1272.9000000059605
14,2,18,control,memory,image178,image26,left,incongruent,NA,right,TRUE,1152.3000000044703
14,2,18,control,memory,image26,image112,right,congruent,NA,left,FALSE,1314.2000000029802
14,2,18,control,retrieval,NA,NA,NA,congruent,image112,image112,TRUE,2855.6999999955297
14,2,18,control,retrieval,NA,NA,NA,congruent,image296,image296,TRUE,1462.8999999985099
14,2,18,control,retrieval,NA,NA,NA,incongruent,image178,image178,TRUE,1158.7000000029802
14,2,19,control,memory,image165,image26,left,congruent,NA,left,TRUE,1187.7999999970198
14,2,19,control,memory,image23,image26,left,congruent,NA,left,TRUE,1336.8000000044703
14,2,19,control,memory,image110,image26,left,congruent,NA,right,FALSE,1397.1000000014901
14,2,19,control,retrieval,NA,NA,NA,congruent,image23,image23,TRUE,3847
14,2,19,control,retrieval,NA,NA,NA,congruent,image110,image110,TRUE,2500.39999999851
14,2,19,control,retrieval,NA,NA,NA,congruent,image165,image165,TRUE,2850.0999999940395
14,2,20,control,memory,image176,image26,left,incongruent,NA,right,TRUE,1052.5999999940395
14,2,20,control,memory,image26,image173,right,incongruent,NA,left,TRUE,1666.1000000014901
14,2,20,control,memory,image339,image26,left,congruent,NA,right,FALSE,929.3000000044703
14,2,20,control,retrieval,NA,NA,NA,incongruent,image173,image173,TRUE,2229.7999999970198
14,2,20,control,retrieval,NA,NA,NA,congruent,image339,image339,TRUE,1683.2000000029802
14,2,20,control,retrieval,NA,NA,NA,incongruent,image176,image176,TRUE,8834.39999999851
14,3,1,retro,memory,image361,image100,right,congruent,NA,left,FALSE,851.7999999970198
14,3,1,retro,memory,image123,image137,left,congruent,NA,left,TRUE,1391.3000000044703
14,3,1,retro,memory,image417,image40,right,incongruent,NA,left,TRUE,1621
14,3,1,retro,retrieval,NA,NA,NA,incongruent,image40,image123,FALSE,3090.39999999851
14,3,1,retro,retrieval,NA,NA,NA,congruent,image100,image123,FALSE,6226.5
14,3,1,retro,retrieval,NA,NA,NA,congruent,image123,image123,TRUE,2192.7999999970198
14,3,2,retro,memory,image402,image216,right,incongruent,NA,left,TRUE,1188.8999999985099
14,3,2,retro,memory,image238,image31,right,incongruent,NA,left,TRUE,1812.1000000014901
14,3,2,retro,memory,image272,image215,right,incongruent,NA,left,TRUE,1354
14,3,2,retro,retrieval,NA,NA,NA,incongruent,image216,image216,TRUE,6081.80000000447
14,3,2,retro,retrieval,NA,NA,NA,incongruent,image215,image215,TRUE,2269.7000000029802
14,3,2,retro,retrieval,NA,NA,NA,incongruent,image31,image31,TRUE,511.3999999985099
14,3,3,retro,memory,image333,image35,right,incongruent,NA,left,TRUE,1198.1000000014901
14,3,3,retro,memory,image276,image225,right,congruent,NA,right,TRUE,1701
14,3,3,retro,memory,image124,image49,right,congruent,NA,right,TRUE,1533.3000000044703
14,3,3,retro,retrieval,NA,NA,NA,congruent,image225,image225,TRUE,2299
14,3,3,retro,retrieval,NA,NA,NA,congruent,image49,image35,FALSE,2494.5999999940395
14,3,3,retro,retrieval,NA,NA,NA,incongruent,image35,image49,FALSE,1298.5
14,3,4,retro,memory,image431,image248,left,congruent,NA,left,TRUE,1160.6000000014901
14,3,4,retro,memory,image3,image399,left,incongruent,NA,left,FALSE,1478.8000000044703
14,3,4,retro,memory,image319,image109,right,congruent,NA,right,TRUE,945.3000000044703
14,3,4,retro,retrieval,NA,NA,NA,congruent,image109,image109,TRUE,2729.3000000044703
14,3,4,retro,retrieval,NA,NA,NA,incongruent,image3,image3,TRUE,2526.2000000029802
14,3,4,retro,retrieval,NA,NA,NA,congruent,image431,image3,FALSE,4371.60000000149
14,3,5,retro,memory,image142,image43,left,congruent,NA,left,TRUE,1011.2999999970198
14,3,5,retro,memory,image194,image192,right,congruent,NA,NULL,FALSE,NA
14,3,5,retro,memory,image409,image111,left,incongruent,NA,right,TRUE,854.1000000014901
14,3,5,retro,retrieval,NA,NA,NA,congruent,image192,image192,TRUE,1950.5
14,3,5,retro,retrieval,NA,NA,NA,incongruent,image409,image142,FALSE,2325.2999999970198
14,3,5,retro,retrieval,NA,NA,NA,congruent,image142,image194,FALSE,1403.1999999955297
14,3,6,retro,memory,image313,image144,left,congruent,NA,left,TRUE,1066.8999999985099
14,3,6,retro,memory,image230,image191,left,incongruent,NA,right,TRUE,1942.2999999970198
14,3,6,retro,memory,image302,image285,right,incongruent,NA,right,FALSE,1278.1999999955297
14,3,6,retro,retrieval,NA,NA,NA,congruent,image313,image313,TRUE,2385.1999999955297
14,3,6,retro,retrieval,NA,NA,NA,incongruent,image285,image191,FALSE,3448
14,3,6,retro,retrieval,NA,NA,NA,incongruent,image230,image230,TRUE,1665.2000000029802
14,3,7,retro,memory,image393,image167,left,incongruent,NA,right,TRUE,1308
14,3,7,retro,memory,image323,image214,left,congruent,NA,left,TRUE,1149.2999999970198
14,3,7,retro,memory,image326,image201,right,incongruent,NA,right,FALSE,907.8999999985099
14,3,7,retro,retrieval,NA,NA,NA,congruent,image323,image323,TRUE,3100.10000000149
14,3,7,retro,retrieval,NA,NA,NA,incongruent,image393,image393,TRUE,1177.5
14,3,7,retro,retrieval,NA,NA,NA,incongruent,image201,image201,TRUE,954.3999999985099
14,3,8,retro,memory,image414,image211,left,incongruent,NA,right,TRUE,1185.5
14,3,8,retro,memory,image208,image101,left,congruent,NA,left,TRUE,1701.5
14,3,8,retro,memory,image396,image120,right,incongruent,NA,left,TRUE,924.1999999955297
14,3,8,retro,retrieval,NA,NA,NA,congruent,image208,image208,TRUE,1903.5999999940395
14,3,8,retro,retrieval,NA,NA,NA,incongruent,image120,image120,TRUE,2832.39999999851
14,3,8,retro,retrieval,NA,NA,NA,incongruent,image414,image25,FALSE,2584
14,3,9,retro,memory,image288,image81,left,incongruent,NA,left,FALSE,1180.3999999985099
14,3,9,retro,memory,image66,image108,left,incongruent,NA,right,TRUE,1498
14,3,9,retro,memory,image345,image174,left,congruent,NA,right,FALSE,1010.2000000029802
14,3,9,retro,retrieval,NA,NA,NA,congruent,image345,image345,TRUE,2718.10000000149
14,3,9,retro,retrieval,NA,NA,NA,incongruent,image66,image108,FALSE,5549.89999999851
14,3,9,retro,retrieval,NA,NA,NA,incongruent,image288,image288,TRUE,3491.89999999851
14,3,10,retro,memory,image265,image73,left,incongruent,NA,left,FALSE,972.7999999970198
14,3,10,retro,memory,image79,image116,left,incongruent,NA,right,TRUE,1481.2000000029802
14,3,10,retro,memory,image299,image18,right,congruent,NA,right,TRUE,1825.3999999985099
14,3,10,retro,retrieval,NA,NA,NA,incongruent,image79,image116,FALSE,2134.10000000149
14,3,10,retro,retrieval,NA,NA,NA,incongruent,image265,image265,TRUE,1181.3999999985099
14,3,10,retro,retrieval,NA,NA,NA,congruent,image18,image299,FALSE,7172.39999999851
14,3,11,retro,memory,image337,image385,right,incongruent,NA,left,TRUE,1073.2000000029802
14,3,11,retro,memory,image65,image336,left,incongruent,NA,right,TRUE,870.7000000029802
14,3,11,retro,memory,image190,image309,right,congruent,NA,left,FALSE,1083.1999999955297
14,3,11,retro,retrieval,NA,NA,NA,incongruent,image385,image385,TRUE,3319.8000000044703
14,3,11,retro,retrieval,NA,NA,NA,congruent,image309,image337,FALSE,4624.5
14,3,11,retro,retrieval,NA,NA,NA,incongruent,image65,image65,TRUE,897.5
14,3,12,retro,memory,image327,image429,right,incongruent,NA,left,TRUE,896
14,3,12,retro,memory,image134,image418,right,incongruent,NA,left,TRUE,924
14,3,12,retro,memory,image349,image88,right,congruent,NA,right,TRUE,1107.6999999955297
14,3,12,retro,retrieval,NA,NA,NA,incongruent,image429,image429,TRUE,3214.2000000029802
14,3,12,retro,retrieval,NA,NA,NA,congruent,image88,image134,FALSE,3436.39999999851
14,3,12,retro,retrieval,NA,NA,NA,incongruent,image418,image88,FALSE,5573.69999999553
14,3,13,retro,memory,image148,image91,right,incongruent,NA,left,TRUE,1395.8999999985099
14,3,13,retro,memory,image220,image427,left,congruent,NA,right,FALSE,1590.8000000044703
14,3,13,retro,memory,image149,image369,right,incongruent,NA,right,FALSE,1051.5
14,3,13,retro,retrieval,NA,NA,NA,incongruent,image91,image369,FALSE,3772.3000000044703
14,3,13,retro,retrieval,NA,NA,NA,incongruent,image369,image148,FALSE,2445.9000000059605
14,3,13,retro,retrieval,NA,NA,NA,congruent,image220,image148,FALSE,582.8999999985099
14,3,14,retro,memory,image419,image21,left,incongruent,NA,right,TRUE,1372.0999999940395
14,3,14,retro,memory,image335,image151,left,congruent,NA,left,TRUE,1271.5
14,3,14,retro,memory,image298,image250,right,incongruent,NA,right,FALSE,1197.2999999970198
14,3,14,retro,retrieval,NA,NA,NA,congruent,image335,image335,TRUE,2523.5
14,3,14,retro,retrieval,NA,NA,NA,incongruent,image419,image298,FALSE,2451.1999999955297
14,3,14,retro,retrieval,NA,NA,NA,incongruent,image250,image21,FALSE,1837.7000000029802
14,3,15,retro,memory,image305,image343,right,incongruent,NA,left,TRUE,894.1000000014901
14,3,15,retro,memory,image423,image380,right,incongruent,NA,right,FALSE,1040.9000000059605
14,3,15,retro,memory,image83,image156,right,congruent,NA,right,TRUE,993
14,3,15,retro,retrieval,NA,NA,NA,congruent,image156,image156,TRUE,3062.6999999955297
14,3,15,retro,retrieval,NA,NA,NA,incongruent,image380,image380,TRUE,3182.60000000149
14,3,15,retro,retrieval,NA,NA,NA,incongruent,image343,image305,FALSE,7396.89999999851
14,3,16,retro,memory,image187,image139,right,congruent,NA,right,TRUE,1033.6000000014901
14,3,16,retro,memory,image251,image426,left,congruent,NA,left,TRUE,970.5
14,3,16,retro,memory,image306,image38,right,congruent,NA,right,TRUE,1041.7999999970198
14,3,16,retro,retrieval,NA,NA,NA,congruent,image139,image139,TRUE,2755.60000000149
14,3,16,retro,retrieval,NA,NA,NA,congruent,image251,image251,TRUE,1356.1999999955297
14,3,16,retro,retrieval,NA,NA,NA,congruent,image38,image38,TRUE,1821.2999999970198
14,3,17,retro,memory,image199,image403,right,incongruent,NA,left,TRUE,1324.5
14,3,17,retro,memory,image106,image102,right,incongruent,NA,right,FALSE,918
14,3,17,retro,memory,image150,image169,right,incongruent,NA,left,TRUE,1026.6999999955297
14,3,17,retro,retrieval,NA,NA,NA,incongruent,image403,image403,TRUE,1897.1000000014901
14,3,17,retro,retrieval,NA,NA,NA,incongruent,image102,image102,TRUE,2092.7000000029802
14,3,17,retro,retrieval,NA,NA,NA,incongruent,image169,image360,FALSE,2641.8000000044703
14,3,18,retro,memory,image290,image360,left,congruent,NA,left,TRUE,946.7000000029802
14,3,18,retro,memory,image95,image237,left,congruent,NA,left,TRUE,944.2999999970198
14,3,18,retro,memory,image398,image272,left,incongruent,NA,right,TRUE,986.8999999985099
14,3,18,retro,retrieval,NA,NA,NA,incongruent,image398,image398,TRUE,1334.6000000014901
14,3,18,retro,retrieval,NA,NA,NA,congruent,image290,image126,FALSE,6676.39999999851
14,3,18,retro,retrieval,NA,NA,NA,congruent,image95,image272,FALSE,2014.2999999970198
14,3,19,retro,memory,image136,image411,right,congruent,NA,NULL,FALSE,NA
14,3,19,retro,memory,image124,image417,right,congruent,NA,left,FALSE,1046.9000000059605
14,3,19,retro,memory,image172,image29,right,incongruent,NA,left,TRUE,1318.6000000014901
14,3,19,retro,retrieval,NA,NA,NA,incongruent,image29,image172,FALSE,2525.7000000029802
14,3,19,retro,retrieval,NA,NA,NA,congruent,image411,image411,TRUE,1821.6999999955297
14,3,19,retro,retrieval,NA,NA,NA,congruent,image417,image124,FALSE,1517.8999999985099
14,3,20,retro,memory,image261,image428,right,incongruent,NA,left,TRUE,874.3999999985099
14,3,20,retro,memory,image82,image431,right,congruent,NA,right,TRUE,1054
14,3,20,retro,memory,image307,image378,right,congruent,NA,left,FALSE,1048.2999999970198
14,3,20,retro,retrieval,NA,NA,NA,congruent,image378,image378,TRUE,1558.4000000059605
14,3,20,retro,retrieval,NA,NA,NA,incongruent,image428,image428,TRUE,3968.7999999970198
14,3,20,retro,retrieval,NA,NA,NA,congruent,image431,image431,TRUE,4643.29999999702
43,1,1,retro,memory,image30,image425,right,incongruent,NA,left,TRUE,1680
43,1,1,retro,memory,image371,image342,left,congruent,NA,left,TRUE,1919.800000000745
43,1,1,retro,memory,image53,image325,right,incongruent,NA,left,TRUE,1953.6000000014901
43,1,1,retro,retrieval,NA,NA,NA,incongruent,image425,image425,TRUE,3363.599999997765
43,1,1,retro,retrieval,NA,NA,NA,incongruent,image325,image371,FALSE,5353.39999999851
43,1,1,retro,retrieval,NA,NA,NA,congruent,image371,image325,FALSE,6710.89999999851
43,1,2,retro,memory,image257,image303,right,congruent,NA,left,FALSE,1814.8999999985099
43,1,2,retro,memory,image307,image357,right,congruent,NA,right,TRUE,1754.3999999985099
43,1,2,retro,memory,image392,image140,right,congruent,NA,right,TRUE,1654.699999999255
43,1,2,retro,retrieval,NA,NA,NA,congruent,image140,image140,TRUE,1906.7999999970198
43,1,2,retro,retrieval,NA,NA,NA,congruent,image303,image392,FALSE,4392.900000002235
43,1,2,retro,retrieval,NA,NA,NA,congruent,image357,image357,TRUE,1290.1000000014901
43,1,3,retro,memory,image280,image229,left,incongruent,NA,NULL,FALSE,NA
43,1,3,retro,memory,image407,image178,right,incongruent,NA,left,TRUE,1851.800000000745
43,1,3,retro,memory,image20,image349,left,congruent,NA,left,TRUE,1841
43,1,3,retro,retrieval,NA,NA,NA,congruent,image20,image20,TRUE,1001.3000000007451
43,1,3,retro,retrieval,NA,NA,NA,incongruent,image280,image407,FALSE,7764.800000000745
43,1,3,retro,retrieval,NA,NA,NA,incongruent,image178,image280,FALSE,6867.5
43,1,4,retro,memory,image94,image245,right,incongruent,NA,left,TRUE,1630.5999999977648
43,1,4,retro,memory,image308,image68,left,congruent,NA,left,TRUE,1590.699999999255
43,1,4,retro,memory,image328,image424,left,congruent,NA,left,TRUE,1833.300000000745
43,1,4,retro,retrieval,NA,NA,NA,congruent,image328,image328,TRUE,2084.199999999255
43,1,4,retro,retrieval,NA,NA,NA,congruent,image308,image308,TRUE,2470.699999999255
43,1,4,retro,retrieval,NA,NA,NA,incongruent,image245,image328,FALSE,6493.800000000745
43,1,5,retro,memory,image93,image255,left,congruent,NA,NULL,FALSE,NA
43,1,5,retro,memory,image187,image19,left,incongruent,NA,NULL,FALSE,NA
43,1,5,retro,memory,image263,image306,right,incongruent,NA,left,TRUE,1568.199999999255
43,1,5,retro,retrieval,NA,NA,NA,incongruent,image306,image306,TRUE,1218.8999999985099
43,1,5,retro,retrieval,NA,NA,NA,congruent,image93,image93,TRUE,4162.60000000149
43,1,5,retro,retrieval,NA,NA,NA,incongruent,image187,image93,FALSE,634.7000000029802
43,1,6,retro,memory,image400,image301,left,congruent,NA,left,TRUE,1648.5999999977648
43,1,6,retro,memory,image302,image189,right,incongruent,NA,left,TRUE,1645.5
43,1,6,retro,memory,image2,image248,right,incongruent,NA,left,TRUE,1625.8999999985099
43,1,6,retro,retrieval,NA,NA,NA,congruent,image400,image400,TRUE,2851.5
43,1,6,retro,retrieval,NA,NA,NA,incongruent,image248,image189,FALSE,8006.300000000745
43,1,6,retro,retrieval,NA,NA,NA,incongruent,image189,image248,FALSE,6256.5
43,1,7,retro,memory,image177,image35,left,congruent,NA,left,TRUE,1460.300000000745
43,1,7,retro,memory,image197,image83,left,incongruent,NA,NULL,FALSE,NA
43,1,7,retro,memory,image63,image98,left,incongruent,NA,right,TRUE,1872.300000000745
43,1,7,retro,retrieval,NA,NA,NA,incongruent,image197,image197,TRUE,2450.39999999851
43,1,7,retro,retrieval,NA,NA,NA,congruent,image177,image177,TRUE,2694.5
43,1,7,retro,retrieval,NA,NA,NA,incongruent,image63,NULL,FALSE,NA
43,1,8,retro,memory,image129,image91,right,incongruent,NA,left,TRUE,1745.2999999970198
43,1,8,retro,memory,image272,image205,left,congruent,NA,left,TRUE,1755
43,1,8,retro,memory,image156,image77,left,congruent,NA,left,TRUE,1949.5
43,1,8,retro,retrieval,NA,NA,NA,congruent,image272,image272,TRUE,2090.900000002235
43,1,8,retro,retrieval,NA,NA,NA,incongruent,image91,image77,FALSE,4908.800000000745
43,1,8,retro,retrieval,NA,NA,NA,congruent,image156,image156,TRUE,1742.2000000029802
43,1,9,retro,memory,image43,image356,right,congruent,NA,right,TRUE,1958.0999999977648
43,1,9,retro,memory,image363,image304,left,congruent,NA,NULL,FALSE,NA
43,1,9,retro,memory,image153,image313,left,incongruent,NA,right,TRUE,1671.6000000014901
43,1,9,retro,retrieval,NA,NA,NA,congruent,image363,image79,FALSE,5296
43,1,9,retro,retrieval,NA,NA,NA,congruent,image356,image356,TRUE,974
43,1,9,retro,retrieval,NA,NA,NA,incongruent,image153,image153,TRUE,1832.699999999255
43,1,10,retro,memory,image21,image391,left,congruent,NA,left,TRUE,1544.5
43,1,10,retro,memory,image95,image191,right,incongruent,NA,NULL,FALSE,NA
43,1,10,retro,memory,image72,image218,right,incongruent,NA,left,TRUE,1754.1000000014901
43,1,10,retro,retrieval,NA,NA,NA,incongruent,image191,image191,TRUE,3574.900000002235
43,1,10,retro,retrieval,NA,NA,NA,congruent,image21,image21,TRUE,1306.9000000022352
43,1,10,retro,retrieval,NA,NA,NA,incongruent,image218,image391,FALSE,2982.900000002235
43,1,11,retro,memory,image382,image405,right,congruent,NA,right,TRUE,1613.4000000022352
43,1,11,retro,memory,image213,image120,right,incongruent,NA,left,TRUE,1784.199999999255
43,1,11,retro,memory,image254,image47,right,congruent,NA,right,TRUE,1629.1000000014901
43,1,11,retro,retrieval,NA,NA,NA,incongruent,image120,image120,TRUE,2775.900000002235
43,1,11,retro,retrieval,NA,NA,NA,congruent,image405,image405,TRUE,1376.8999999985099
43,1,11,retro,retrieval,NA,NA,NA,congruent,image47,image47,TRUE,3897.5
43,1,12,retro,memory,image416,image399,left,incongruent,NA,right,TRUE,1181.5999999977648
43,1,12,retro,memory,image12,image8,right,incongruent,NA,left,TRUE,1476.3999999985099
43,1,12,retro,memory,image190,image102,left,congruent,NA,NULL,FALSE,NA
43,1,12,retro,retrieval,NA,NA,NA,incongruent,image8,image8,TRUE,1460.3999999985099
43,1,12,retro,retrieval,NA,NA,NA,incongruent,image416,image416,TRUE,2519.10000000149
43,1,12,retro,retrieval,NA,NA,NA,congruent,image190,image190,TRUE,1160.6000000014901
43,1,13,retro,memory,image327,image159,left,congruent,NA,left,TRUE,1423
43,1,13,retro,memory,image288,image32,right,incongruent,NA,left,TRUE,1618.6000000014901
43,1,13,retro,memory,image415,image115,left,incongruent,NA,NULL,FALSE,NA
43,1,13,retro,retrieval,NA,NA,NA,congruent,image327,image327,TRUE,2751.699999999255
43,1,13,retro,retrieval,NA,NA,NA,incongruent,image32,image32,TRUE,1979
43,1,13,retro,retrieval,NA,NA,NA,incongruent,image415,image415,TRUE,4554
43,1,14,retro,memory,image9,image324,left,incongruent,NA,NULL,FALSE,NA
43,1,14,retro,memory,image351,image380,right,congruent,NA,NULL,FALSE,NA
43,1,14,retro,memory,image107,image118,right,congruent,NA,right,TRUE,1548.1000000014901
43,1,14,retro,retrieval,NA,NA,NA,incongruent,image9,image380,FALSE,3101.300000000745
43,1,14,retro,retrieval,NA,NA,NA,congruent,image118,image118,TRUE,1889.5
43,1,14,retro,retrieval,NA,NA,NA,congruent,image380,image351,FALSE,2167.10000000149
43,1,15,retro,memory,image186,image141,right,congruent,NA,right,TRUE,1917.1000000014901
43,1,15,retro,memory,image106,image31,left,congruent,NA,left,TRUE,1768
43,1,15,retro,memory,image297,image286,left,congruent,NA,NULL,FALSE,NA
43,1,15,retro,retrieval,NA,NA,NA,congruent,image141,image141,TRUE,2374.5
43,1,15,retro,retrieval,NA,NA,NA,congruent,image106,image106,TRUE,4487.300000000745
43,1,15,retro,retrieval,NA,NA,NA,congruent,image297,image297,TRUE,2160.699999999255
43,1,16,retro,memory,image126,image326,left,incongruent,NA,right,TRUE,1531.4000000022352
43,1,16,retro,memory,image335,image152,left,congruent,NA,left,TRUE,1558.199999999255
43,1,16,retro,memory,image396,image330,right,incongruent,NA,left,TRUE,1542
43,1,16,retro,retrieval,NA,NA,NA,incongruent,image330,image330,TRUE,1169.8999999985099
43,1,16,retro,retrieval,NA,NA,NA,incongruent,image126,image396,FALSE,5313.599999997765
43,1,16,retro,retrieval,NA,NA,NA,congruent,image335,image335,TRUE,1084
43,1,17,retro,memory,image323,image157,right,incongruent,NA,left,TRUE,1615.6000000014901
43,1,17,retro,memory,image398,image39,left,incongruent,NA,right,TRUE,1545.5
43,1,17,retro,memory,image216,image234,right,congruent,NA,NULL,FALSE,NA
43,1,17,retro,retrieval,NA,NA,NA,incongruent,image398,image398,TRUE,1628.699999999255
43,1,17,retro,retrieval,NA,NA,NA,congruent,image234,image234,TRUE,2153.199999999255
43,1,17,retro,retrieval,NA,NA,NA,incongruent,image157,image157,TRUE,1817.9000000022352
43,1,18,retro,memory,image337,image214,right,incongruent,NA,left,TRUE,1697.5
43,1,18,retro,memory,image414,image147,left,incongruent,NA,right,TRUE,1999
43,1,18,retro,memory,image239,image60,right,incongruent,NA,left,TRUE,1768.7000000029802
43,1,18,retro,retrieval,NA,NA,NA,incongruent,image214,image147,FALSE,4205.5
43,1,18,retro,retrieval,NA,NA,NA,incongruent,image414,image214,FALSE,3003.800000000745
43,1,18,retro,retrieval,NA,NA,NA,incongruent,image60,image239,FALSE,1233.9000000022352
43,1,19,retro,memory,image384,image355,right,incongruent,NA,left,TRUE,1627.1000000014901
43,1,19,retro,memory,image182,image200,left,incongruent,NA,NULL,FALSE,NA
43,1,19,retro,memory,image247,image307,right,congruent,NA,NULL,FALSE,NA
43,1,19,retro,retrieval,NA,NA,NA,incongruent,image182,image182,TRUE,2013.300000000745
43,1,19,retro,retrieval,NA,NA,NA,congruent,image307,image384,FALSE,4107
43,1,19,retro,retrieval,NA,NA,NA,incongruent,image355,image200,FALSE,3558
43,1,20,retro,memory,image314,image420,right,incongruent,NA,left,TRUE,1696.199999999255
43,1,20,retro,memory,image238,image342,left,congruent,NA,NULL,FALSE,NA
43,1,20,retro,memory,image149,image228,left,congruent,NA,NULL,FALSE,NA
43,1,20,retro,retrieval,NA,NA,NA,congruent,image238,image238,TRUE,5685.800000000745
43,1,20,retro,retrieval,NA,NA,NA,congruent,image149,image149,TRUE,1570.800000000745
43,1,20,retro,retrieval,NA,NA,NA,incongruent,image420,image314,FALSE,1856.3999999985099
43,2,1,control,memory,image26,image58,right,congruent,NA,right,TRUE,1481.1000000014901
43,2,1,control,memory,image100,image26,left,congruent,NA,NULL,FALSE,NA
43,2,1,control,memory,image320,image26,left,incongruent,NA,right,TRUE,1474.300000000745
43,2,1,control,retrieval,NA,NA,NA,incongruent,image320,image320,TRUE,1313.2000000029802
43,2,1,control,retrieval,NA,NA,NA,congruent,image100,image100,TRUE,1983
43,2,1,control,retrieval,NA,NA,NA,congruent,image58,image58,TRUE,1384.4000000022352
43,2,2,control,memory,image26,image34,right,incongruent,NA,left,TRUE,1338.3999999985099
43,2,2,control,memory,image64,image26,left,incongruent,NA,right,TRUE,1373.6000000014901
43,2,2,control,memory,image26,image424,right,incongruent,NA,NULL,FALSE,NA
43,2,2,control,retrieval,NA,NA,NA,incongruent,image34,image34,TRUE,1810.199999999255
43,2,2,control,retrieval,NA,NA,NA,incongruent,image424,image424,TRUE,1958.199999999255
43,2,2,control,retrieval,NA,NA,NA,incongruent,image64,image64,TRUE,744.9000000022352
43,2,3,control,memory,image26,image408,right,congruent,NA,right,TRUE,1863.9000000022352
43,2,3,control,memory,image26,image169,right,incongruent,NA,NULL,FALSE,NA
43,2,3,control,memory,image419,image26,left,incongruent,NA,right,TRUE,1603.699999999255
43,2,3,control,retrieval,NA,NA,NA,incongruent,image169,image169,TRUE,1951.3999999985099
43,2,3,control,retrieval,NA,NA,NA,incongruent,image419,image419,TRUE,1529.2000000029802
43,2,3,control,retrieval,NA,NA,NA,congruent,image408,image408,TRUE,1537.800000000745
43,2,4,control,memory,image193,image26,left,incongruent,NA,right,TRUE,1774.7999999970198
43,2,4,control,memory,image26,image273,right,incongruent,NA,left,TRUE,1426.2000000029802
43,2,4,control,memory,image103,image26,left,incongruent,NA,right,TRUE,1384
43,2,4,control,retrieval,NA,NA,NA,incongruent,image273,image273,TRUE,1580.699999999255
43,2,4,control,retrieval,NA,NA,NA,incongruent,image103,image321,FALSE,3396.10000000149
43,2,4,control,retrieval,NA,NA,NA,incongruent,image193,image193,TRUE,4559
43,2,5,control,memory,image26,image394,right,congruent,NA,right,TRUE,1399.8999999985099
43,2,5,control,memory,image163,image26,left,congruent,NA,left,TRUE,1695
43,2,5,control,memory,image26,image10,right,congruent,NA,right,TRUE,1290.7999999970198
43,2,5,control,retrieval,NA,NA,NA,congruent,image394,image394,TRUE,2391.800000000745
43,2,5,control,retrieval,NA,NA,NA,congruent,image163,image163,TRUE,4410.5
43,2,5,control,retrieval,NA,NA,NA,congruent,image10,image10,TRUE,1658
43,2,6,control,memory,image223,image26,left,incongruent,NA,right,TRUE,1834.699999999255
43,2,6,control,memory,image178,image26,left,incongruent,NA,right,TRUE,1471.9000000022352
43,2,6,control,memory,image26,image425,right,incongruent,NA,left,TRUE,1589.1000000014901
43,2,6,control,retrieval,NA,NA,NA,incongruent,image425,image425,TRUE,1074.300000000745
43,2,6,control,retrieval,NA,NA,NA,incongruent,image178,image178,TRUE,1583.699999999255
43,2,6,control,retrieval,NA,NA,NA,incongruent,image223,image223,TRUE,1295.4000000022352
43,2,7,control,memory,image292,image26,left,congruent,NA,left,TRUE,1338.6000000014901
43,2,7,control,memory,image215,image26,left,incongruent,NA,right,TRUE,1248.199999999255
43,2,7,control,memory,image26,image370,right,incongruent,NA,left,TRUE,1357.800000000745
43,2,7,control,retrieval,NA,NA,NA,incongruent,image215,image215,TRUE,3372.599999997765
43,2,7,control,retrieval,NA,NA,NA,incongruent,image370,image292,FALSE,2441.599999997765
43,2,7,control,retrieval,NA,NA,NA,congruent,image292,image370,FALSE,5868.300000000745
43,2,8,control,memory,image133,image26,left,incongruent,NA,right,TRUE,1702.2000000029802
43,2,8,control,memory,image308,image26,left,congruent,NA,left,TRUE,1140.199999999255
43,2,8,control,memory,image26,image23,right,congruent,NA,right,TRUE,1233.300000000745
43,2,8,control,retrieval,NA,NA,NA,congruent,image308,image308,TRUE,1777
43,2,8,control,retrieval,NA,NA,NA,congruent,image23,image23,TRUE,1361.300000000745
43,2,8,control,retrieval,NA,NA,NA,incongruent,image133,image133,TRUE,3956.89999999851
43,2,9,control,memory,image26,image104,right,congruent,NA,right,TRUE,1828.199999999255
43,2,9,control,memory,image26,image391,right,incongruent,NA,left,TRUE,1205.9000000022352
43,2,9,control,memory,image187,image26,left,incongruent,NA,NULL,FALSE,NA
43,2,9,control,retrieval,NA,NA,NA,congruent,image104,image391,FALSE,2051.599999997765
43,2,9,control,retrieval,NA,NA,NA,incongruent,image187,image116,FALSE,4952.29999999702
43,2,9,control,retrieval,NA,NA,NA,incongruent,image391,image104,FALSE,993.1000000014901
43,2,10,control,memory,image321,image26,left,incongruent,NA,right,TRUE,1365.3999999985099
43,2,10,control,memory,image412,image26,left,congruent,NA,left,TRUE,1061.5
43,2,10,control,memory,image26,image397,right,congruent,NA,right,TRUE,1309.1000000014901
43,2,10,control,retrieval,NA,NA,NA,congruent,image412,image412,TRUE,1681.5999999977648
43,2,10,control,retrieval,NA,NA,NA,incongruent,image321,image349,FALSE,4036
43,2,10,control,retrieval,NA,NA,NA,congruent,image397,image397,TRUE,1194.300000000745
43,2,11,control,memory,image269,image26,left,incongruent,NA,right,TRUE,1672.3999999985099
43,2,11,control,memory,image26,image222,right,incongruent,NA,left,TRUE,1841
43,2,11,control,memory,image26,image290,right,congruent,NA,right,TRUE,1630.1000000014901
43,2,11,control,retrieval,NA,NA,NA,congruent,image290,image290,TRUE,969
43,2,11,control,retrieval,NA,NA,NA,incongruent,image269,image269,TRUE,8614.79999999702
43,2,11,control,retrieval,NA,NA,NA,incongruent,image222,image222,TRUE,1329.7999999970198
43,2,12,control,memory,image112,image26,left,congruent,NA,NULL,FALSE,NA
43,2,12,control,memory,image26,image364,right,congruent,NA,right,TRUE,1234.0999999977648
43,2,12,control,memory,image79,image26,left,incongruent,NA,right,TRUE,1678.199999999255
43,2,12,control,retrieval,NA,NA,NA,congruent,image364,image364,TRUE,2150
43,2,12,control,retrieval,NA,NA,NA,incongruent,image79,image112,FALSE,2318.10000000149
43,2,12,control,retrieval,NA,NA,NA,congruent,image112,image295,FALSE,5683.70000000298
43,2,13,control,memory,image186,image26,left,incongruent,NA,right,TRUE,1685.300000000745
43,2,13,control,memory,image50,image26,left,congruent,NA,left,TRUE,1302.9000000022352
43,2,13,control,memory,image117,image26,left,congruent,NA,left,TRUE,1559.5999999977648
43,2,13,control,retrieval,NA,NA,NA,incongruent,image186,image186,TRUE,2898.2000000029802
43,2,13,control,retrieval,NA,NA,NA,congruent,image117,image50,FALSE,1851.199999999255
43,2,13,control,retrieval,NA,NA,NA,congruent,image50,image117,FALSE,682.5999999977648
43,2,14,control,memory,image26,image284,right,incongruent,NA,left,TRUE,1425.3999999985099
43,2,14,control,memory,image295,image26,left,congruent,NA,left,TRUE,1594.800000000745
43,2,14,control,memory,image26,image176,right,incongruent,NA,left,TRUE,1891.5
43,2,14,control,retrieval,NA,NA,NA,congruent,image295,image295,TRUE,1588.199999999255
43,2,14,control,retrieval,NA,NA,NA,incongruent,image284,image176,FALSE,3602.199999999255
43,2,14,control,retrieval,NA,NA,NA,incongruent,image176,image284,FALSE,1817.8999999985099
43,2,15,control,memory,image26,image233,right,congruent,NA,NULL,FALSE,NA
43,2,15,control,memory,image287,image26,left,congruent,NA,left,TRUE,1480.199999999255
43,2,15,control,memory,image62,image26,left,congruent,NA,NULL,FALSE,NA
43,2,15,control,retrieval,NA,NA,NA,congruent,image62,image62,TRUE,1867.800000000745
43,2,15,control,retrieval,NA,NA,NA,congruent,image233,image233,TRUE,3366.60000000149
43,2,15,control,retrieval,NA,NA,NA,congruent,image287,image287,TRUE,672.9000000022352
43,2,16,control,memory,image26,image27,right,congruent,NA,right,TRUE,1122.199999999255
43,2,16,control,memory,image195,image26,left,incongruent,NA,right,TRUE,1856.2999999970198
43,2,16,control,memory,image152,image26,left,incongruent,NA,right,TRUE,1665.9000000022352
43,2,16,control,retrieval,NA,NA,NA,congruent,image27,image27,TRUE,4009.39999999851
43,2,16,control,retrieval,NA,NA,NA,incongruent,image195,image195,TRUE,2480.39999999851
43,2,16,control,retrieval,NA,NA,NA,incongruent,image152,image152,TRUE,974
43,2,17,control,memory,image347,image26,left,incongruent,NA,right,TRUE,1484.2999999970198
43,2,17,control,memory,image26,image294,right,congruent,NA,NULL,FALSE,NA
43,2,17,control,memory,image423,image26,left,congruent,NA,left,TRUE,1246
43,2,17,control,retrieval,NA,NA,NA,incongruent,image347,image347,TRUE,3018.5
43,2,17,control,retrieval,NA,NA,NA,congruent,image294,image423,FALSE,1460.5999999977648
43,2,17,control,retrieval,NA,NA,NA,congruent,image423,image98,FALSE,4170
43,2,18,control,memory,image216,image26,left,incongruent,NA,right,TRUE,1454.5
43,2,18,control,memory,image26,image125,right,congruent,NA,right,TRUE,1341.2000000029802
43,2,18,control,memory,image26,image107,right,incongruent,NA,left,TRUE,1510.800000000745
43,2,18,control,retrieval,NA,NA,NA,congruent,image125,image125,TRUE,2267.699999999255
43,2,18,control,retrieval,NA,NA,NA,incongruent,image107,image107,TRUE,2428
43,2,18,control,retrieval,NA,NA,NA,incongruent,image216,image3,FALSE,4008.2000000029802
43,2,19,control,memory,image26,image264,right,congruent,NA,NULL,FALSE,NA
43,2,19,control,memory,image26,image198,right,congruent,NA,right,TRUE,1608.300000000745
43,2,19,control,memory,image26,image217,right,congruent,NA,right,TRUE,1451.5
43,2,19,control,retrieval,NA,NA,NA,congruent,image264,image198,FALSE,2774
43,2,19,control,retrieval,NA,NA,NA,congruent,image198,image264,FALSE,3449.60000000149
43,2,19,control,retrieval,NA,NA,NA,congruent,image217,image135,FALSE,3124.5
43,2,20,control,memory,image26,image92,right,congruent,NA,right,TRUE,1217.5999999977648
43,2,20,control,memory,image40,image26,left,incongruent,NA,NULL,FALSE,NA
43,2,20,control,memory,image341,image26,left,congruent,NA,left,TRUE,998.5999999977648
43,2,20,control,retrieval,NA,NA,NA,congruent,image92,image92,TRUE,1471.8999999985099
43,2,20,control,retrieval,NA,NA,NA,congruent,image341,image341,TRUE,1136
43,2,20,control,retrieval,NA,NA,NA,incongruent,image40,image45,FALSE,3826.199999999255
43,3,1,pre,memory,image212,image22,right,congruent,NA,right,TRUE,1440.300000000745
43,3,1,pre,memory,image83,image305,left,incongruent,NA,right,TRUE,1264
43,3,1,pre,memory,image332,image421,left,incongruent,NA,NULL,FALSE,NA
43,3,1,pre,retrieval,NA,NA,NA,incongruent,image83,image83,TRUE,3425.5
43,3,1,pre,retrieval,NA,NA,NA,congruent,image22,image22,TRUE,804.8999999985099
43,3,1,pre,retrieval,NA,NA,NA,incongruent,image332,image305,FALSE,2279.300000000745
43,3,2,pre,memory,image377,image82,left,congruent,NA,left,TRUE,1167.6000000014901
43,3,2,pre,memory,image207,image409,left,congruent,NA,left,TRUE,1243.199999999255
43,3,2,pre,memory,image192,image420,right,incongruent,NA,left,TRUE,1418.8999999985099
43,3,2,pre,retrieval,NA,NA,NA,congruent,image377,image377,TRUE,2696
43,3,2,pre,retrieval,NA,NA,NA,congruent,image207,image207,TRUE,2857.10000000149
43,3,2,pre,retrieval,NA,NA,NA,incongruent,image420,image420,TRUE,3663.599999997765
43,3,3,pre,memory,image317,image309,left,congruent,NA,left,TRUE,1247.5
43,3,3,pre,memory,image428,image71,left,incongruent,NA,right,TRUE,1347
43,3,3,pre,memory,image358,image57,left,incongruent,NA,right,TRUE,1260.3999999985099
43,3,3,pre,retrieval,NA,NA,NA,incongruent,image428,image428,TRUE,4405.20000000298
43,3,3,pre,retrieval,NA,NA,NA,congruent,image317,image317,TRUE,1982.3999999985099
43,3,3,pre,retrieval,NA,NA,NA,incongruent,image358,image309,FALSE,5515.39999999851
43,3,4,pre,memory,image345,image44,right,congruent,NA,right,TRUE,1157
43,3,4,pre,memory,image70,image137,right,incongruent,NA,left,TRUE,1744.199999999255
43,3,4,pre,memory,image24,image346,right,incongruent,NA,NULL,FALSE,NA
43,3,4,pre,retrieval,NA,NA,NA,incongruent,image346,image346,TRUE,2527
43,3,4,pre,retrieval,NA,NA,NA,congruent,image44,image429,FALSE,4382.099999997765
43,3,4,pre,retrieval,NA,NA,NA,incongruent,image137,image44,FALSE,990.7000000029802
43,3,5,pre,memory,image410,image149,right,incongruent,NA,right,FALSE,1277.199999999255
43,3,5,pre,memory,image159,image38,left,incongruent,NA,right,TRUE,1247.699999999255
43,3,5,pre,memory,image351,image389,left,incongruent,NA,NULL,FALSE,NA
43,3,5,pre,retrieval,NA,NA,NA,incongruent,image351,image351,TRUE,1530
43,3,5,pre,retrieval,NA,NA,NA,incongruent,image149,image149,TRUE,3121.5
43,3,5,pre,retrieval,NA,NA,NA,incongruent,image159,image159,TRUE,1516
43,3,6,pre,memory,image3,image324,left,incongruent,NA,right,TRUE,1553.699999999255
43,3,6,pre,memory,image319,image135,right,congruent,NA,right,TRUE,1457.800000000745
43,3,6,pre,memory,image182,image253,left,incongruent,NA,right,TRUE,1856.0999999977648
43,3,6,pre,retrieval,NA,NA,NA,incongruent,image182,image182,TRUE,1900.8999999985099
43,3,6,pre,retrieval,NA,NA,NA,congruent,image135,image135,TRUE,3001.099999997765
43,3,6,pre,retrieval,NA,NA,NA,incongruent,image3,image3,TRUE,587.7999999970198
43,3,7,pre,memory,image102,image278,left,incongruent,NA,right,TRUE,1190.6000000014901
43,3,7,pre,memory,image171,image13,left,congruent,NA,NULL,FALSE,NA
43,3,7,pre,memory,image255,image60,left,congruent,NA,left,TRUE,1464.699999999255
43,3,7,pre,retrieval,NA,NA,NA,congruent,image255,image255,TRUE,1126.699999999255
43,3,7,pre,retrieval,NA,NA,NA,congruent,image171,image171,TRUE,1891.2999999970198
43,3,7,pre,retrieval,NA,NA,NA,incongruent,image102,image102,TRUE,1352.8999999985099
43,3,8,pre,memory,image168,image136,left,congruent,NA,left,TRUE,1804.199999999255
43,3,8,pre,memory,image240,image31,left,congruent,NA,left,TRUE,1438.5999999977648
43,3,8,pre,memory,image241,image4,left,incongruent,NA,NULL,FALSE,NA
43,3,8,pre,retrieval,NA,NA,NA,congruent,image240,image240,TRUE,1942.9000000022352
43,3,8,pre,retrieval,NA,NA,NA,congruent,image168,image168,TRUE,2174.099999997765
43,3,8,pre,retrieval,NA,NA,NA,incongruent,image241,image4,FALSE,2626.699999999255
43,3,9,pre,memory,image326,image359,left,congruent,NA,left,TRUE,1003.1999999992549
43,3,9,pre,memory,image101,image208,right,congruent,NA,NULL,FALSE,NA
43,3,9,pre,memory,image35,image164,left,incongruent,NA,right,TRUE,1415
43,3,9,pre,retrieval,NA,NA,NA,incongruent,image35,image35,TRUE,1497.3999999985099
43,3,9,pre,retrieval,NA,NA,NA,congruent,image326,image326,TRUE,2622.39999999851
43,3,9,pre,retrieval,NA,NA,NA,congruent,image208,image208,TRUE,1044.8999999985099
43,3,10,pre,memory,image99,image52,left,congruent,NA,left,TRUE,1888.6000000014901
43,3,10,pre,memory,image365,image180,right,incongruent,NA,NULL,FALSE,NA
43,3,10,pre,memory,image90,image247,left,congruent,NA,left,TRUE,1531.300000000745
43,3,10,pre,retrieval,NA,NA,NA,incongruent,image180,image180,TRUE,1340.7999999970198
43,3,10,pre,retrieval,NA,NA,NA,congruent,image90,image90,TRUE,1694.5
43,3,10,pre,retrieval,NA,NA,NA,congruent,image99,image99,TRUE,3431.39999999851
43,3,11,pre,memory,image398,image129,right,congruent,NA,right,TRUE,1122.300000000745
43,3,11,pre,memory,image204,image297,left,incongruent,NA,right,TRUE,1280.2999999970198
43,3,11,pre,memory,image211,image250,left,congruent,NA,left,TRUE,1399.800000000745
43,3,11,pre,retrieval,NA,NA,NA,incongruent,image204,image204,TRUE,1769.6000000014901
43,3,11,pre,retrieval,NA,NA,NA,congruent,image129,image129,TRUE,1938
43,3,11,pre,retrieval,NA,NA,NA,congruent,image211,image250,FALSE,5566.39999999851
43,3,12,pre,memory,image274,image418,left,congruent,NA,left,TRUE,1498.5
43,3,12,pre,memory,image318,image355,left,congruent,NA,left,TRUE,1475.5
43,3,12,pre,memory,image315,image400,right,incongruent,NA,left,TRUE,1926.8999999985099
43,3,12,pre,retrieval,NA,NA,NA,congruent,image318,image318,TRUE,2616.699999999255
43,3,12,pre,retrieval,NA,NA,NA,congruent,image274,image274,TRUE,3116.7999999970198
43,3,12,pre,retrieval,NA,NA,NA,incongruent,image400,image400,TRUE,831
43,3,13,pre,memory,image376,image235,right,congruent,NA,right,TRUE,1373
43,3,13,pre,memory,image279,image116,right,congruent,NA,right,TRUE,1537.0999999977648
43,3,13,pre,memory,image202,image403,left,congruent,NA,left,TRUE,1003
43,3,13,pre,retrieval,NA,NA,NA,congruent,image235,image279,FALSE,6218.699999999255
43,3,13,pre,retrieval,NA,NA,NA,congruent,image116,image202,FALSE,2619.10000000149
43,3,13,pre,retrieval,NA,NA,NA,congruent,image202,image116,FALSE,1543.300000000745
43,3,14,pre,memory,image146,image161,right,congruent,NA,right,TRUE,1353.699999999255
43,3,14,pre,memory,image213,image143,left,congruent,NA,left,TRUE,1414.699999999255
43,3,14,pre,memory,image167,image140,left,incongruent,NA,right,TRUE,1672.8999999985099
43,3,14,pre,retrieval,NA,NA,NA,incongruent,image167,image167,TRUE,902.7000000029802
43,3,14,pre,retrieval,NA,NA,NA,congruent,image161,image161,TRUE,4036.300000000745
43,3,14,pre,retrieval,NA,NA,NA,congruent,image213,image161,FALSE,495.4000000022352
43,3,15,pre,memory,image296,image153,right,incongruent,NA,left,TRUE,1149.699999999255
43,3,15,pre,memory,image414,image138,right,congruent,NA,right,TRUE,1144.699999999255
43,3,15,pre,memory,image254,image236,left,incongruent,NA,NULL,FALSE,NA
43,3,15,pre,retrieval,NA,NA,NA,incongruent,image153,image153,TRUE,2073
43,3,15,pre,retrieval,NA,NA,NA,incongruent,image254,image254,TRUE,1168.5999999977648
43,3,15,pre,retrieval,NA,NA,NA,congruent,image138,image138,TRUE,3243
43,3,16,pre,memory,image151,image37,right,congruent,NA,right,TRUE,986.3999999985099
43,3,16,pre,memory,image166,image331,left,incongruent,NA,right,TRUE,1589.199999999255
43,3,16,pre,memory,image160,image155,right,incongruent,NA,left,TRUE,1593.1000000014901
43,3,16,pre,retrieval,NA,NA,NA,congruent,image37,image37,TRUE,2990.400000002235
43,3,16,pre,retrieval,NA,NA,NA,incongruent,image155,image155,TRUE,5840
43,3,16,pre,retrieval,NA,NA,NA,incongruent,image166,image166,TRUE,1452.8999999985099
43,3,17,pre,memory,image49,image396,left,congruent,NA,left,TRUE,1714
43,3,17,pre,memory,image56,image128,right,congruent,NA,right,TRUE,1375.6000000014901
43,3,17,pre,memory,image96,image174,left,congruent,NA,left,TRUE,1332
43,3,17,pre,retrieval,NA,NA,NA,congruent,image128,image128,TRUE,1206.9000000022352
43,3,17,pre,retrieval,NA,NA,NA,congruent,image49,image49,TRUE,1480.5
43,3,17,pre,retrieval,NA,NA,NA,congruent,image96,image56,FALSE,5213.10000000149
43,3,18,pre,memory,image132,image8,left,congruent,NA,left,TRUE,1615
43,3,18,pre,memory,image325,image337,right,congruent,NA,left,FALSE,1367.199999999255
43,3,18,pre,memory,image158,image299,right,incongruent,NA,right,FALSE,1918.5999999977648
43,3,18,pre,retrieval,NA,NA,NA,congruent,image132,image132,TRUE,3818.300000000745
43,3,18,pre,retrieval,NA,NA,NA,incongruent,image299,image299,TRUE,4889
43,3,18,pre,retrieval,NA,NA,NA,congruent,image337,image337,TRUE,572.5
43,3,19,pre,memory,image139,image5,left,congruent,NA,left,TRUE,1379.699999999255
43,3,19,pre,memory,image388,image259,left,incongruent,NA,right,TRUE,1561.3999999985099
43,3,19,pre,memory,image431,image422,left,congruent,NA,left,TRUE,1518.800000000745
43,3,19,pre,retrieval,NA,NA,NA,congruent,image431,image431,TRUE,1537.6000000014901
43,3,19,pre,retrieval,NA,NA,NA,incongruent,image388,image5,FALSE,2298
43,3,19,pre,retrieval,NA,NA,NA,congruent,image139,image139,TRUE,2941.5
43,3,20,pre,memory,image83,image6,left,incongruent,NA,right,TRUE,1231.5
43,3,20,pre,memory,image89,image55,right,incongruent,NA,right,FALSE,1630.5
43,3,20,pre,memory,image209,image343,left,congruent,NA,left,TRUE,1249.199999999255
43,3,20,pre,retrieval,NA,NA,NA,incongruent,image83,image83,TRUE,2082
43,3,20,pre,retrieval,NA,NA,NA,incongruent,image55,image54,FALSE,3390.60000000149
43,3,20,pre,retrieval,NA,NA,NA,congruent,image209,image209,TRUE,851.9000000022352
18,1,1,pre,memory,image253,image255,right,congruent,NA,NULL,FALSE,NA
18,1,1,pre,memory,image176,image376,right,congruent,NA,NULL,FALSE,NA
18,1,1,pre,memory,image393,image61,left,incongruent,NA,NULL,FALSE,NA
18,1,1,pre,retrieval,NA,NA,NA,incongruent,image393,image393,TRUE,1386.3000000715256
18,1,1,pre,retrieval,NA,NA,NA,congruent,image255,image376,FALSE,3025.600000023842
18,1,1,pre,retrieval,NA,NA,NA,congruent,image376,image255,FALSE,1044.1000000238419
18,1,2,pre,memory,image204,image218,right,congruent,NA,NULL,FALSE,NA
18,1,2,pre,memory,image389,image266,right,congruent,NA,NULL,FALSE,NA
18,1,2,pre,memory,image405,image362,left,congruent,NA,NULL,FALSE,NA
18,1,2,pre,retrieval,NA,NA,NA,congruent,image218,image218,TRUE,6372.5
18,1,2,pre,retrieval,NA,NA,NA,congruent,image266,image405,FALSE,5187
18,1,2,pre,retrieval,NA,NA,NA,congruent,image405,image266,FALSE,3423.5999999046326
18,1,3,pre,memory,image384,image192,left,incongruent,NA,NULL,FALSE,NA
18,1,3,pre,memory,image199,image254,right,incongruent,NA,NULL,FALSE,NA
18,1,3,pre,memory,image153,image34,left,congruent,NA,NULL,FALSE,NA
18,1,3,pre,retrieval,NA,NA,NA,congruent,image153,image153,TRUE,1635.8000000715256
18,1,3,pre,retrieval,NA,NA,NA,incongruent,image254,image254,TRUE,1940.2000000476837
18,1,3,pre,retrieval,NA,NA,NA,incongruent,image384,image384,TRUE,1945.2999999523163
18,1,4,pre,memory,image220,image420,left,congruent,NA,NULL,FALSE,NA
18,1,4,pre,memory,image415,image419,left,congruent,NA,NULL,FALSE,NA
18,1,4,pre,memory,image15,image382,left,congruent,NA,NULL,FALSE,NA
18,1,4,pre,retrieval,NA,NA,NA,congruent,image15,image15,TRUE,1051.2000000476837
18,1,4,pre,retrieval,NA,NA,NA,congruent,image415,image415,TRUE,3937.5
18,1,4,pre,retrieval,NA,NA,NA,congruent,image220,image220,TRUE,1126
18,1,5,pre,memory,image331,image208,right,incongruent,NA,NULL,FALSE,NA
18,1,5,pre,memory,image14,image278,left,congruent,NA,NULL,FALSE,NA
18,1,5,pre,memory,image95,image285,left,congruent,NA,NULL,FALSE,NA
18,1,5,pre,retrieval,NA,NA,NA,congruent,image95,image95,TRUE,1241
18,1,5,pre,retrieval,NA,NA,NA,incongruent,image208,image208,TRUE,4880.5
18,1,5,pre,retrieval,NA,NA,NA,congruent,image14,image14,TRUE,824.2999999523163
18,1,6,pre,memory,image276,image2,right,congruent,NA,NULL,FALSE,NA
18,1,6,pre,memory,image369,image98,left,incongruent,NA,NULL,FALSE,NA
18,1,6,pre,memory,image307,image413,left,congruent,NA,NULL,FALSE,NA
18,1,6,pre,retrieval,NA,NA,NA,congruent,image2,image2,TRUE,1061.8000000715256
18,1,6,pre,retrieval,NA,NA,NA,congruent,image307,image307,TRUE,3130.399999976158
18,1,6,pre,retrieval,NA,NA,NA,incongruent,image369,image369,TRUE,597.5
18,1,7,pre,memory,image154,image388,right,incongruent,NA,NULL,FALSE,NA
18,1,7,pre,memory,image359,image200,left,incongruent,NA,NULL,FALSE,NA
18,1,7,pre,memory,image93,image379,right,incongruent,NA,NULL,FALSE,NA
18,1,7,pre,retrieval,NA,NA,NA,incongruent,image359,image359,TRUE,3743.399999976158
18,1,7,pre,retrieval,NA,NA,NA,incongruent,image379,image379,TRUE,2167.100000023842
18,1,7,pre,retrieval,NA,NA,NA,incongruent,image388,image388,TRUE,741.5
18,1,8,pre,memory,image225,image407,right,congruent,NA,NULL,FALSE,NA
18,1,8,pre,memory,image263,image194,left,congruent,NA,NULL,FALSE,NA
18,1,8,pre,memory,image6,image216,right,incongruent,NA,NULL,FALSE,NA
18,1,8,pre,retrieval,NA,NA,NA,congruent,image407,image407,TRUE,3792.0999999046326
18,1,8,pre,retrieval,NA,NA,NA,congruent,image263,image216,FALSE,3684.0999999046326
18,1,8,pre,retrieval,NA,NA,NA,incongruent,image216,image263,FALSE,1189.7000000476837
18,1,9,pre,memory,image395,image288,right,incongruent,NA,NULL,FALSE,NA
18,1,9,pre,memory,image273,image138,left,incongruent,NA,NULL,FALSE,NA
18,1,9,pre,memory,image77,image256,left,incongruent,NA,NULL,FALSE,NA
18,1,9,pre,retrieval,NA,NA,NA,incongruent,image273,image273,TRUE,2267.2000000476837
18,1,9,pre,retrieval,NA,NA,NA,incongruent,image77,image77,TRUE,3770.3000000715256
18,1,9,pre,retrieval,NA,NA,NA,incongruent,image288,image288,TRUE,1555.2999999523163
18,1,10,pre,memory,image315,image414,right,incongruent,NA,NULL,FALSE,NA
18,1,10,pre,memory,image336,image13,right,incongruent,NA,NULL,FALSE,NA
18,1,10,pre,memory,image40,image259,left,incongruent,NA,NULL,FALSE,NA
18,1,10,pre,retrieval,NA,NA,NA,incongruent,image40,image40,TRUE,2146.100000023842
18,1,10,pre,retrieval,NA,NA,NA,incongruent,image414,image13,FALSE,2830.7000000476837
18,1,10,pre,retrieval,NA,NA,NA,incongruent,image13,image414,FALSE,4278.399999976158
18,1,11,pre,memory,image347,image55,right,congruent,NA,NULL,FALSE,NA
18,1,11,pre,memory,image358,image207,left,incongruent,NA,NULL,FALSE,NA
18,1,11,pre,memory,image30,image113,left,congruent,NA,NULL,FALSE,NA
18,1,11,pre,retrieval,NA,NA,NA,congruent,image30,image30,TRUE,1464.1999999284744
18,1,11,pre,retrieval,NA,NA,NA,incongruent,image358,image358,TRUE,3965.6999999284744
18,1,11,pre,retrieval,NA,NA,NA,congruent,image55,image55,TRUE,537.2999999523163
18,1,12,pre,memory,image157,image333,right,congruent,NA,NULL,FALSE,NA
18,1,12,pre,memory,image401,image300,right,incongruent,NA,NULL,FALSE,NA
18,1,12,pre,memory,image280,image429,left,incongruent,NA,NULL,FALSE,NA
18,1,12,pre,retrieval,NA,NA,NA,incongruent,image280,image280,TRUE,2801
18,1,12,pre,retrieval,NA,NA,NA,congruent,image333,image333,TRUE,2543.5
18,1,12,pre,retrieval,NA,NA,NA,incongruent,image300,image300,TRUE,1686.3999999761581
18,1,13,pre,memory,image391,image128,right,congruent,NA,NULL,FALSE,NA
18,1,13,pre,memory,image424,image244,right,congruent,NA,NULL,FALSE,NA
18,1,13,pre,memory,image5,image96,right,congruent,NA,NULL,FALSE,NA
18,1,13,pre,retrieval,NA,NA,NA,congruent,image96,image96,TRUE,2956.7000000476837
18,1,13,pre,retrieval,NA,NA,NA,congruent,image244,image244,TRUE,2030.3999999761581
18,1,13,pre,retrieval,NA,NA,NA,congruent,image128,image128,TRUE,2159.600000023842
18,1,14,pre,memory,image240,image178,left,congruent,NA,NULL,FALSE,NA
18,1,14,pre,memory,image418,image145,right,congruent,NA,NULL,FALSE,NA
18,1,14,pre,memory,image385,image236,right,congruent,NA,NULL,FALSE,NA
18,1,14,pre,retrieval,NA,NA,NA,congruent,image240,image240,TRUE,1801.6000000238419
18,1,14,pre,retrieval,NA,NA,NA,congruent,image236,image236,TRUE,2784.1999999284744
18,1,14,pre,retrieval,NA,NA,NA,congruent,image145,image145,TRUE,617.6000000238419
18,1,15,pre,memory,image247,image118,left,incongruent,NA,NULL,FALSE,NA
18,1,15,pre,memory,image329,image250,left,congruent,NA,NULL,FALSE,NA
18,1,15,pre,memory,image129,image355,left,congruent,NA,NULL,FALSE,NA
18,1,15,pre,retrieval,NA,NA,NA,congruent,image329,image329,TRUE,3202.7999999523163
18,1,15,pre,retrieval,NA,NA,NA,congruent,image129,image129,TRUE,8231.100000023842
18,1,15,pre,retrieval,NA,NA,NA,incongruent,image247,image247,TRUE,2255.5
18,1,16,pre,memory,image191,image321,left,congruent,NA,NULL,FALSE,NA
18,1,16,pre,memory,image158,image293,right,incongruent,NA,NULL,FALSE,NA
18,1,16,pre,memory,image150,image342,right,incongruent,NA,NULL,FALSE,NA
18,1,16,pre,retrieval,NA,NA,NA,incongruent,image293,image293,TRUE,2613.6999999284744
18,1,16,pre,retrieval,NA,NA,NA,incongruent,image342,image342,TRUE,1834.7999999523163
18,1,16,pre,retrieval,NA,NA,NA,congruent,image191,image191,TRUE,3775.3000000715256
18,1,17,pre,memory,image302,image230,left,congruent,NA,NULL,FALSE,NA
18,1,17,pre,memory,image83,image375,left,incongruent,NA,NULL,FALSE,NA
18,1,17,pre,memory,image323,image320,right,incongruent,NA,NULL,FALSE,NA
18,1,17,pre,retrieval,NA,NA,NA,congruent,image302,image302,TRUE,5807.600000023842
18,1,17,pre,retrieval,NA,NA,NA,incongruent,image320,image320,TRUE,1574.1999999284744
18,1,17,pre,retrieval,NA,NA,NA,incongruent,image83,image83,TRUE,1323.1999999284744
18,1,18,pre,memory,image377,image168,right,congruent,NA,NULL,FALSE,NA
18,1,18,pre,memory,image306,image202,right,congruent,NA,NULL,FALSE,NA
18,1,18,pre,memory,image238,image223,right,incongruent,NA,NULL,FALSE,NA
18,1,18,pre,retrieval,NA,NA,NA,incongruent,image223,image223,TRUE,1666.5
18,1,18,pre,retrieval,NA,NA,NA,congruent,image202,image202,TRUE,1448.8000000715256
18,1,18,pre,retrieval,NA,NA,NA,congruent,image168,image168,TRUE,3768.5999999046326
18,1,19,pre,memory,image91,image99,left,incongruent,NA,NULL,FALSE,NA
18,1,19,pre,memory,image212,image337,left,incongruent,NA,NULL,FALSE,NA
18,1,19,pre,memory,image234,image133,right,incongruent,NA,NULL,FALSE,NA
18,1,19,pre,retrieval,NA,NA,NA,incongruent,image133,image133,TRUE,2367.7999999523163
18,1,19,pre,retrieval,NA,NA,NA,incongruent,image212,image91,FALSE,1730
18,1,19,pre,retrieval,NA,NA,NA,incongruent,image91,image337,FALSE,5969.100000023842
18,1,20,pre,memory,image59,image415,right,incongruent,NA,NULL,FALSE,NA
18,1,20,pre,memory,image261,image206,right,incongruent,NA,NULL,FALSE,NA
18,1,20,pre,memory,image143,image142,right,congruent,NA,NULL,FALSE,NA
18,1,20,pre,retrieval,NA,NA,NA,congruent,image142,image142,TRUE,1847.3999999761581
18,1,20,pre,retrieval,NA,NA,NA,incongruent,image415,image415,TRUE,2673.5
18,1,20,pre,retrieval,NA,NA,NA,incongruent,image206,image206,TRUE,548.2999999523163
18,2,1,retro,memory,image79,image141,right,congruent,NA,NULL,FALSE,NA
18,2,1,retro,memory,image299,image431,left,incongruent,NA,NULL,FALSE,NA
18,2,1,retro,memory,image253,image105,right,congruent,NA,NULL,FALSE,NA
18,2,1,retro,retrieval,NA,NA,NA,incongruent,image299,image299,TRUE,2402.0999999046326
18,2,1,retro,retrieval,NA,NA,NA,congruent,image105,NULL,FALSE,NA
18,2,1,retro,retrieval,NA,NA,NA,congruent,image141,image141,TRUE,1364.7999999523163
18,2,2,retro,memory,image205,image139,right,congruent,NA,NULL,FALSE,NA
18,2,2,retro,memory,image90,image276,left,congruent,NA,NULL,FALSE,NA
18,2,2,retro,memory,image327,image42,left,congruent,NA,NULL,FALSE,NA
18,2,2,retro,retrieval,NA,NA,NA,congruent,image90,image90,TRUE,4418.5
18,2,2,retro,retrieval,NA,NA,NA,congruent,image327,image327,TRUE,2421.2999999523163
18,2,2,retro,retrieval,NA,NA,NA,congruent,image139,image139,TRUE,728.3999999761581
18,2,3,retro,memory,image220,image35,right,incongruent,NA,NULL,FALSE,NA
18,2,3,retro,memory,image241,image409,right,congruent,NA,NULL,FALSE,NA
18,2,3,retro,memory,image107,image134,right,congruent,NA,NULL,FALSE,NA
18,2,3,retro,retrieval,NA,NA,NA,congruent,image409,image409,TRUE,2682.3000000715256
18,2,3,retro,retrieval,NA,NA,NA,incongruent,image35,image35,TRUE,1135.8000000715256
18,2,3,retro,retrieval,NA,NA,NA,congruent,image134,image134,TRUE,1143.1999999284744
18,2,4,retro,memory,image110,image325,left,congruent,NA,NULL,FALSE,NA
18,2,4,retro,memory,image294,image56,right,incongruent,NA,NULL,FALSE,NA
18,2,4,retro,memory,image101,image397,left,incongruent,NA,NULL,FALSE,NA
18,2,4,retro,retrieval,NA,NA,NA,congruent,image110,image110,TRUE,5241.899999976158
18,2,4,retro,retrieval,NA,NA,NA,incongruent,image101,image101,TRUE,1542.5
18,2,4,retro,retrieval,NA,NA,NA,incongruent,image56,image56,TRUE,1261.5
18,2,5,retro,memory,image428,image313,left,incongruent,NA,NULL,FALSE,NA
18,2,5,retro,memory,image370,image119,right,congruent,NA,NULL,FALSE,NA
18,2,5,retro,memory,image155,image213,right,congruent,NA,NULL,FALSE,NA
18,2,5,retro,retrieval,NA,NA,NA,incongruent,image428,image428,TRUE,2216.5
18,2,5,retro,retrieval,NA,NA,NA,congruent,image119,image119,TRUE,1720.2999999523163
18,2,5,retro,retrieval,NA,NA,NA,congruent,image213,image213,TRUE,1740.8000000715256
18,2,6,retro,memory,image20,image82,left,congruent,NA,NULL,FALSE,NA
18,2,6,retro,memory,image6,image146,right,incongruent,NA,NULL,FALSE,NA
18,2,6,retro,memory,image392,image18,left,incongruent,NA,NULL,FALSE,NA
18,2,6,retro,retrieval,NA,NA,NA,incongruent,image392,image392,TRUE,1714.5
18,2,6,retro,retrieval,NA,NA,NA,incongruent,image146,image146,TRUE,1282.2999999523163
18,2,6,retro,retrieval,NA,NA,NA,congruent,image20,image20,TRUE,4953.600000023842
18,2,7,retro,memory,image399,image425,left,congruent,NA,NULL,FALSE,NA
18,2,7,retro,memory,image408,image390,right,incongruent,NA,NULL,FALSE,NA
18,2,7,retro,memory,image417,image160,left,incongruent,NA,NULL,FALSE,NA
18,2,7,retro,retrieval,NA,NA,NA,congruent,image399,image399,TRUE,2868.7000000476837
18,2,7,retro,retrieval,NA,NA,NA,incongruent,image390,image390,TRUE,3718.1999999284744
18,2,7,retro,retrieval,NA,NA,NA,incongruent,image417,image417,TRUE,2619.7000000476837
18,2,8,retro,memory,image403,image394,left,incongruent,NA,NULL,FALSE,NA
18,2,8,retro,memory,image144,image254,right,incongruent,NA,NULL,FALSE,NA
18,2,8,retro,memory,image149,image416,left,congruent,NA,NULL,FALSE,NA
18,2,8,retro,retrieval,NA,NA,NA,incongruent,image254,image254,TRUE,1788.1000000238419
18,2,8,retro,retrieval,NA,NA,NA,incongruent,image403,image403,TRUE,2789
18,2,8,retro,retrieval,NA,NA,NA,congruent,image149,image149,TRUE,1259.9000000953674
18,2,9,retro,memory,image194,image71,right,congruent,NA,NULL,FALSE,NA
18,2,9,retro,memory,image12,image391,left,congruent,NA,NULL,FALSE,NA
18,2,9,retro,memory,image169,image137,right,congruent,NA,NULL,FALSE,NA
18,2,9,retro,retrieval,NA,NA,NA,congruent,image12,image12,TRUE,2902.100000023842
18,2,9,retro,retrieval,NA,NA,NA,congruent,image137,image137,TRUE,1818.5
18,2,9,retro,retrieval,NA,NA,NA,congruent,image71,image71,TRUE,1107.6000000238419
18,2,10,retro,memory,image380,image88,left,incongruent,NA,NULL,FALSE,NA
18,2,10,retro,memory,image412,image345,left,congruent,NA,NULL,FALSE,NA
18,2,10,retro,memory,image381,image304,right,incongruent,NA,NULL,FALSE,NA
18,2,10,retro,retrieval,NA,NA,NA,incongruent,image304,image304,TRUE,1442.7999999523163
18,2,10,retro,retrieval,NA,NA,NA,congruent,image412,image412,TRUE,1884
18,2,10,retro,retrieval,NA,NA,NA,incongruent,image380,image380,TRUE,3862.600000023842
18,2,11,retro,memory,image68,image265,right,congruent,NA,NULL,FALSE,NA
18,2,11,retro,memory,image78,image176,left,incongruent,NA,NULL,FALSE,NA
18,2,11,retro,memory,image285,image297,left,incongruent,NA,NULL,FALSE,NA
18,2,11,retro,retrieval,NA,NA,NA,incongruent,image78,image78,TRUE,2401
18,2,11,retro,retrieval,NA,NA,NA,congruent,image265,image265,TRUE,1855.5
18,2,11,retro,retrieval,NA,NA,NA,incongruent,image285,image285,TRUE,522.2999999523163
18,2,12,retro,memory,image55,image140,left,incongruent,NA,NULL,FALSE,NA
18,2,12,retro,memory,image398,image116,left,incongruent,NA,NULL,FALSE,NA
18,2,12,retro,memory,image317,image332,right,incongruent,NA,NULL,FALSE,NA
18,2,12,retro,retrieval,NA,NA,NA,incongruent,image398,image398,TRUE,1873.3999999761581
18,2,12,retro,retrieval,NA,NA,NA,incongruent,image55,image116,FALSE,8304.599999904633
18,2,12,retro,retrieval,NA,NA,NA,incongruent,image332,image55,FALSE,1923.3000000715256
18,2,13,retro,memory,image154,image187,left,congruent,NA,NULL,FALSE,NA
18,2,13,retro,memory,image129,image280,left,congruent,NA,NULL,FALSE,NA
18,2,13,retro,memory,image369,image150,left,incongruent,NA,NULL,FALSE,NA
18,2,13,retro,retrieval,NA,NA,NA,incongruent,image369,image369,TRUE,1276
18,2,13,retro,retrieval,NA,NA,NA,congruent,image154,image154,TRUE,1856.5999999046326
18,2,13,retro,retrieval,NA,NA,NA,congruent,image129,image280,FALSE,4298.700000047684
18,2,14,retro,memory,image102,image349,left,incongruent,NA,NULL,FALSE,NA
18,2,14,retro,memory,image198,image373,right,incongruent,NA,NULL,FALSE,NA
18,2,14,retro,memory,image60,image298,right,congruent,NA,NULL,FALSE,NA
18,2,14,retro,retrieval,NA,NA,NA,incongruent,image102,image102,TRUE,2412.399999976158
18,2,14,retro,retrieval,NA,NA,NA,incongruent,image373,image373,TRUE,1650.2999999523163
18,2,14,retro,retrieval,NA,NA,NA,congruent,image298,image298,TRUE,2468.5999999046326
18,2,15,retro,memory,image157,image123,right,congruent,NA,NULL,FALSE,NA
18,2,15,retro,memory,image30,image266,left,incongruent,NA,NULL,FALSE,NA
18,2,15,retro,memory,image223,image192,left,incongruent,NA,NULL,FALSE,NA
18,2,15,retro,retrieval,NA,NA,NA,incongruent,image223,image223,TRUE,2099.399999976158
18,2,15,retro,retrieval,NA,NA,NA,congruent,image123,image30,FALSE,6613.900000095367
18,2,15,retro,retrieval,NA,NA,NA,incongruent,image30,image266,FALSE,1634.2000000476837
18,2,16,retro,memory,image190,image208,left,incongruent,NA,NULL,FALSE,NA
18,2,16,retro,memory,image312,image188,right,congruent,NA,NULL,FALSE,NA
18,2,16,retro,memory,image99,image385,right,incongruent,NA,NULL,FALSE,NA
18,2,16,retro,retrieval,NA,NA,NA,incongruent,image190,image190,TRUE,2899.2999999523163
18,2,16,retro,retrieval,NA,NA,NA,congruent,image188,image188,TRUE,996.3999999761581
18,2,16,retro,retrieval,NA,NA,NA,incongruent,image385,image385,TRUE,1234.8999999761581
18,2,17,retro,memory,image422,image163,left,incongruent,NA,NULL,FALSE,NA
18,2,17,retro,memory,image306,image70,right,congruent,NA,NULL,FALSE,NA
18,2,17,retro,memory,image232,image161,left,incongruent,NA,NULL,FALSE,NA
18,2,17,retro,retrieval,NA,NA,NA,congruent,image70,image70,TRUE,2321
18,2,17,retro,retrieval,NA,NA,NA,incongruent,image232,image232,TRUE,2531.2999999523163
18,2,17,retro,retrieval,NA,NA,NA,incongruent,image422,image422,TRUE,2070.5
18,2,18,retro,memory,image299,image377,left,incongruent,NA,NULL,FALSE,NA
18,2,18,retro,memory,image396,image32,right,incongruent,NA,NULL,FALSE,NA
18,2,18,retro,memory,image401,image351,right,incongruent,NA,NULL,FALSE,NA
18,2,18,retro,retrieval,NA,NA,NA,incongruent,image32,image32,TRUE,1860.2000000476837
18,2,18,retro,retrieval,NA,NA,NA,incongruent,image351,image351,TRUE,2130.5999999046326
18,2,18,retro,retrieval,NA,NA,NA,incongruent,image299,image299,TRUE,1158.3000000715256
18,2,19,retro,memory,image365,image418,right,incongruent,NA,NULL,FALSE,NA
18,2,19,retro,memory,image214,image379,left,incongruent,NA,NULL,FALSE,NA
18,2,19,retro,memory,image211,image152,right,incongruent,NA,NULL,FALSE,NA
18,2,19,retro,retrieval,NA,NA,NA,incongruent,image152,image152,TRUE,1983.8999999761581
18,2,19,retro,retrieval,NA,NA,NA,incongruent,image214,image214,TRUE,1753.5
18,2,19,retro,retrieval,NA,NA,NA,incongruent,image418,image418,TRUE,1809.7000000476837
18,2,20,retro,memory,image59,image309,left,congruent,NA,NULL,FALSE,NA
18,2,20,retro,memory,image209,image427,right,incongruent,NA,NULL,FALSE,NA
18,2,20,retro,memory,image189,image54,left,incongruent,NA,NULL,FALSE,NA
18,2,20,retro,retrieval,NA,NA,NA,incongruent,image427,image427,TRUE,1878.2000000476837
18,2,20,retro,retrieval,NA,NA,NA,incongruent,image189,image189,TRUE,2053.3000000715256
18,2,20,retro,retrieval,NA,NA,NA,congruent,image59,image59,TRUE,1483.5999999046326
18,3,1,control,memory,image26,image17,right,congruent,NA,NULL,FALSE,NA
18,3,1,control,memory,image40,image26,left,incongruent,NA,NULL,FALSE,NA
18,3,1,control,memory,image233,image26,left,congruent,NA,NULL,FALSE,NA
18,3,1,control,retrieval,NA,NA,NA,incongruent,image40,image40,TRUE,1845.3999999761581
18,3,1,control,retrieval,NA,NA,NA,congruent,image233,image233,TRUE,1813.2000000476837
18,3,1,control,retrieval,NA,NA,NA,congruent,image17,image17,TRUE,459.39999997615814
18,3,2,control,memory,image26,image174,right,incongruent,NA,NULL,FALSE,NA
18,3,2,control,memory,image26,image340,right,congruent,NA,NULL,FALSE,NA
18,3,2,control,memory,image226,image26,left,incongruent,NA,NULL,FALSE,NA
18,3,2,control,retrieval,NA,NA,NA,incongruent,image226,image226,TRUE,2752.899999976158
18,3,2,control,retrieval,NA,NA,NA,incongruent,image174,image174,TRUE,1246.1000000238419
18,3,2,control,retrieval,NA,NA,NA,congruent,image340,image340,TRUE,1186.1999999284744
18,3,3,control,memory,image393,image26,left,incongruent,NA,NULL,FALSE,NA
18,3,3,control,memory,image26,image287,right,congruent,NA,NULL,FALSE,NA
18,3,3,control,memory,image26,image235,right,congruent,NA,NULL,FALSE,NA
18,3,3,control,retrieval,NA,NA,NA,congruent,image235,image235,TRUE,1074.7999999523163
18,3,3,control,retrieval,NA,NA,NA,congruent,image287,image287,TRUE,1634.0999999046326
18,3,3,control,retrieval,NA,NA,NA,incongruent,image393,image393,TRUE,652.9000000953674
18,3,4,control,memory,image217,image26,left,congruent,NA,NULL,FALSE,NA
18,3,4,control,memory,image26,image172,right,congruent,NA,NULL,FALSE,NA
18,3,4,control,memory,image26,image273,right,incongruent,NA,NULL,FALSE,NA
18,3,4,control,retrieval,NA,NA,NA,incongruent,image273,image273,TRUE,978.3000000715256
18,3,4,control,retrieval,NA,NA,NA,congruent,image217,image217,TRUE,1968.8999999761581
18,3,4,control,retrieval,NA,NA,NA,congruent,image172,image172,TRUE,3873
18,3,5,control,memory,image26,image35,right,incongruent,NA,NULL,FALSE,NA
18,3,5,control,memory,image262,image26,left,congruent,NA,NULL,FALSE,NA
18,3,5,control,memory,image425,image26,left,incongruent,NA,NULL,FALSE,NA
18,3,5,control,retrieval,NA,NA,NA,congruent,image262,image262,TRUE,1441.1000000238419
18,3,5,control,retrieval,NA,NA,NA,incongruent,image35,image35,TRUE,5192.600000023842
18,3,5,control,retrieval,NA,NA,NA,incongruent,image425,image425,TRUE,581.1000000238419
18,3,6,control,memory,image26,image301,right,incongruent,NA,NULL,FALSE,NA
18,3,6,control,memory,image26,image20,right,congruent,NA,NULL,FALSE,NA
18,3,6,control,memory,image10,image26,left,congruent,NA,NULL,FALSE,NA
18,3,6,control,retrieval,NA,NA,NA,congruent,image20,image20,TRUE,3058.5
18,3,6,control,retrieval,NA,NA,NA,congruent,image10,image10,TRUE,7684.700000047684
18,3,6,control,retrieval,NA,NA,NA,incongruent,image301,image301,TRUE,2952.6999999284744
18,3,7,control,memory,image26,image371,right,congruent,NA,NULL,FALSE,NA
18,3,7,control,memory,image341,image26,left,congruent,NA,NULL,FALSE,NA
18,3,7,control,memory,image26,image53,right,congruent,NA,NULL,FALSE,NA
18,3,7,control,retrieval,NA,NA,NA,congruent,image53,image53,TRUE,1293.3999999761581
18,3,7,control,retrieval,NA,NA,NA,congruent,image341,image371,FALSE,2029.1000000238419
18,3,7,control,retrieval,NA,NA,NA,congruent,image371,image341,FALSE,1091.3999999761581
18,3,8,control,memory,image26,image195,right,incongruent,NA,NULL,FALSE,NA
18,3,8,control,memory,image26,image215,right,incongruent,NA,NULL,FALSE,NA
18,3,8,control,memory,image26,image62,right,congruent,NA,NULL,FALSE,NA
18,3,8,control,retrieval,NA,NA,NA,incongruent,image215,image215,TRUE,3017.2000000476837
18,3,8,control,retrieval,NA,NA,NA,congruent,image62,image62,TRUE,1862.3999999761581
18,3,8,control,retrieval,NA,NA,NA,incongruent,image195,image195,TRUE,671.5
18,3,9,control,memory,image26,image404,right,congruent,NA,NULL,FALSE,NA
18,3,9,control,memory,image26,image47,right,congruent,NA,NULL,FALSE,NA
18,3,9,control,memory,image78,image26,left,incongruent,NA,NULL,FALSE,NA
18,3,9,control,retrieval,NA,NA,NA,congruent,image47,image47,TRUE,3723.0999999046326
18,3,9,control,retrieval,NA,NA,NA,incongruent,image78,image78,TRUE,1152.1000000238419
18,3,9,control,retrieval,NA,NA,NA,congruent,image404,image404,TRUE,1152.7000000476837
18,3,10,control,memory,image26,image258,right,congruent,NA,NULL,FALSE,NA
18,3,10,control,memory,image423,image26,left,congruent,NA,NULL,FALSE,NA
18,3,10,control,memory,image26,image370,right,incongruent,NA,NULL,FALSE,NA
18,3,10,control,retrieval,NA,NA,NA,congruent,image258,image258,TRUE,4167.100000023842
18,3,10,control,retrieval,NA,NA,NA,congruent,image423,image423,TRUE,1066.5
18,3,10,control,retrieval,NA,NA,NA,incongruent,image370,image370,TRUE,471.3000000715256
18,3,11,control,memory,image92,image26,left,congruent,NA,NULL,FALSE,NA
18,3,11,control,memory,image171,image26,left,congruent,NA,NULL,FALSE,NA
18,3,11,control,memory,image26,image58,right,congruent,NA,NULL,FALSE,NA
18,3,11,control,retrieval,NA,NA,NA,congruent,image58,image58,TRUE,2097
18,3,11,control,retrieval,NA,NA,NA,congruent,image171,image171,TRUE,2158.2999999523163
18,3,11,control,retrieval,NA,NA,NA,congruent,image92,image92,TRUE,3515.899999976158
18,3,12,control,memory,image186,image26,left,incongruent,NA,NULL,FALSE,NA
18,3,12,control,memory,image26,image88,right,congruent,NA,NULL,FALSE,NA
18,3,12,control,memory,image339,image26,left,congruent,NA,NULL,FALSE,NA
18,3,12,control,retrieval,NA,NA,NA,congruent,image339,image339,TRUE,844.7999999523163
18,3,12,control,retrieval,NA,NA,NA,incongruent,image186,image186,TRUE,2039.2999999523163
18,3,12,control,retrieval,NA,NA,NA,congruent,image88,image88,TRUE,1345.0999999046326
18,3,13,control,memory,image169,image26,left,incongruent,NA,NULL,FALSE,NA
18,3,13,control,memory,image26,image296,right,congruent,NA,NULL,FALSE,NA
18,3,13,control,memory,image26,image86,right,congruent,NA,NULL,FALSE,NA
18,3,13,control,retrieval,NA,NA,NA,incongruent,image169,image169,TRUE,897.2000000476837
18,3,13,control,retrieval,NA,NA,NA,congruent,image86,image86,TRUE,1919.5
18,3,13,control,retrieval,NA,NA,NA,congruent,image296,image274,FALSE,7676.699999928474
18,3,14,control,memory,image165,image26,left,congruent,NA,NULL,FALSE,NA
18,3,14,control,memory,image26,image94,right,congruent,NA,NULL,FALSE,NA
18,3,14,control,memory,image391,image26,left,incongruent,NA,NULL,FALSE,NA
18,3,14,control,retrieval,NA,NA,NA,congruent,image94,image94,TRUE,1321.6999999284744
18,3,14,control,retrieval,NA,NA,NA,incongruent,image391,image391,TRUE,1963.3999999761581
18,3,14,control,retrieval,NA,NA,NA,congruent,image165,image165,TRUE,2112.399999976158
18,3,15,control,memory,image26,image52,right,incongruent,NA,NULL,FALSE,NA
18,3,15,control,memory,image26,image194,right,incongruent,NA,NULL,FALSE,NA
18,3,15,control,memory,NA,image26,left,incongruent,NA,NULL,FALSE,NA
18,3,15,control,retrieval,NA,NA,NA,incongruent,image194,image194,TRUE,2096.600000023842
18,3,15,control,retrieval,NA,NA,NA,incongruent,image52,image52,TRUE,1668.1999999284744
18,3,15,control,retrieval,NA,NA,NA,incongruent,NA,NULL,TRUE,1411.8999999761581
18,3,16,control,memory,NA,image26,left,incongruent,NA,NULL,FALSE,NA
18,3,16,control,memory,image26,NA,right,congruent,NA,NULL,FALSE,NA
18,3,16,control,memory,image26,NA,right,congruent,NA,NULL,FALSE,NA
18,3,16,control,retrieval,NA,NA,NA,incongruent,NA,NULL,TRUE,2581.7000000476837
18,3,16,control,retrieval,NA,NA,NA,congruent,NA,NULL,TRUE,1115.3999999761581
18,3,16,control,retrieval,NA,NA,NA,congruent,NA,NULL,TRUE,1161.2000000476837
18,3,17,control,memory,NA,image26,left,incongruent,NA,NULL,FALSE,NA
18,3,17,control,memory,NA,image26,left,incongruent,NA,NULL,FALSE,NA
18,3,17,control,memory,image26,NA,right,congruent,NA,left,FALSE,763.5
18,3,17,control,retrieval,NA,NA,NA,congruent,NA,NULL,TRUE,1402.5
18,3,17,control,retrieval,NA,NA,NA,incongruent,NA,NULL,TRUE,1487.8000000715256
18,3,17,control,retrieval,NA,NA,NA,incongruent,NA,NULL,TRUE,644.3000000715256
18,3,18,control,memory,image26,NA,right,congruent,NA,left,FALSE,494
18,3,18,control,memory,image26,NA,right,congruent,NA,left,FALSE,1715.1000000238419
18,3,18,control,memory,NA,image26,left,incongruent,NA,right,TRUE,882.1000000238419
18,3,18,control,retrieval,NA,NA,NA,congruent,NA,NULL,TRUE,824.5
18,3,18,control,retrieval,NA,NA,NA,incongruent,NA,NULL,TRUE,860.3000000715256
18,3,18,control,retrieval,NA,NA,NA,congruent,NA,NULL,TRUE,752
18,3,19,control,memory,NA,image26,left,incongruent,NA,right,TRUE,689.4000000953674
18,3,19,control,memory,NA,image26,left,incongruent,NA,right,TRUE,337.10000002384186
18,3,19,control,memory,image26,NA,right,congruent,NA,left,FALSE,534.8999999761581
18,3,19,control,retrieval,NA,NA,NA,incongruent,NA,NULL,TRUE,1377.1000000238419
18,3,19,control,retrieval,NA,NA,NA,incongruent,NA,NULL,TRUE,1054.6999999284744
18,3,19,control,retrieval,NA,NA,NA,congruent,NA,NULL,TRUE,897.2999999523163
18,3,20,control,memory,image26,NA,right,congruent,NA,right,TRUE,1130.8000000715256
18,3,20,control,memory,NA,image26,left,incongruent,NA,left,FALSE,806.3000000715256
18,3,20,control,memory,image26,NA,right,congruent,NA,right,TRUE,717.3999999761581
18,3,20,control,retrieval,NA,NA,NA,congruent,NA,NULL,TRUE,1221.6000000238419
18,3,20,control,retrieval,NA,NA,NA,congruent,NA,NULL,TRUE,943.1000000238419
18,3,20,control,retrieval,NA,NA,NA,incongruent,NA,NULL,TRUE,838.3000000715256
27,1,1,pre,memory,image418,image230,right,congruent,NA,right,TRUE,1779.300000000745
27,1,1,pre,memory,image359,image326,right,incongruent,NA,NULL,FALSE,NA
27,1,1,pre,memory,image180,image280,right,congruent,NA,right,TRUE,1146
27,1,1,pre,retrieval,NA,NA,NA,incongruent,image326,image230,FALSE,3587.9000000003725
27,1,1,pre,retrieval,NA,NA,NA,congruent,image280,image280,TRUE,3682.5999999996275
27,1,1,pre,retrieval,NA,NA,NA,congruent,image230,image418,FALSE,1151.7999999988824
27,1,2,pre,memory,image1,image334,right,congruent,NA,right,TRUE,1896.5999999996275
27,1,2,pre,memory,image319,image32,right,congruent,NA,NULL,FALSE,NA
27,1,2,pre,memory,image34,image333,left,congruent,NA,left,TRUE,1491.5
27,1,2,pre,retrieval,NA,NA,NA,congruent,image334,image334,TRUE,6540.800000000745
27,1,2,pre,retrieval,NA,NA,NA,congruent,image32,image32,TRUE,1346.300000000745
27,1,2,pre,retrieval,NA,NA,NA,congruent,image34,image34,TRUE,1065.800000000745
27,1,3,pre,memory,image194,image59,right,incongruent,NA,right,FALSE,1524.5
27,1,3,pre,memory,image404,image325,right,congruent,NA,NULL,FALSE,NA
27,1,3,pre,memory,image138,image21,left,incongruent,NA,NULL,FALSE,NA
27,1,3,pre,retrieval,NA,NA,NA,incongruent,image59,image59,TRUE,7234.5999999996275
27,1,3,pre,retrieval,NA,NA,NA,congruent,image325,image325,TRUE,5270.5
27,1,3,pre,retrieval,NA,NA,NA,incongruent,image138,image21,FALSE,2024.5
27,1,4,pre,memory,image192,image173,left,incongruent,NA,right,TRUE,1839.6000000014901
27,1,4,pre,memory,image380,image215,left,incongruent,NA,right,TRUE,1851.699999999255
27,1,4,pre,memory,image27,image155,left,incongruent,NA,NULL,FALSE,NA
27,1,4,pre,retrieval,NA,NA,NA,incongruent,image380,image192,FALSE,3107.2000000011176
27,1,4,pre,retrieval,NA,NA,NA,incongruent,image192,image173,FALSE,3971.39999999851
27,1,4,pre,retrieval,NA,NA,NA,incongruent,image27,image215,FALSE,4479.799999998882
27,1,5,pre,memory,image43,image223,right,congruent,NA,right,TRUE,1041.5999999996275
27,1,5,pre,memory,image204,image52,left,incongruent,NA,left,FALSE,1587.1000000014901
27,1,5,pre,memory,image314,image5,left,incongruent,NA,left,FALSE,1594.9000000003725
27,1,5,pre,retrieval,NA,NA,NA,incongruent,image204,image223,FALSE,3433.89999999851
27,1,5,pre,retrieval,NA,NA,NA,congruent,image223,image204,FALSE,6441.300000000745
27,1,5,pre,retrieval,NA,NA,NA,incongruent,image314,image314,TRUE,1771.4000000003725
27,1,6,pre,memory,image208,image57,right,incongruent,NA,right,FALSE,1405.5
27,1,6,pre,memory,image343,image7,right,incongruent,NA,NULL,FALSE,NA
27,1,6,pre,memory,image64,image323,right,incongruent,NA,NULL,FALSE,NA
27,1,6,pre,retrieval,NA,NA,NA,incongruent,image7,image7,TRUE,2908
27,1,6,pre,retrieval,NA,NA,NA,incongruent,image57,image57,TRUE,995.5999999996275
27,1,6,pre,retrieval,NA,NA,NA,incongruent,image323,image64,FALSE,4267.4000000003725
27,1,7,pre,memory,image163,image351,right,congruent,NA,right,TRUE,1157.4000000003725
27,1,7,pre,memory,image361,image276,right,congruent,NA,right,TRUE,1422.9000000003725
27,1,7,pre,memory,image158,image399,right,incongruent,NA,right,FALSE,1512.699999999255
27,1,7,pre,retrieval,NA,NA,NA,congruent,image351,image351,TRUE,5896.0999999996275
27,1,7,pre,retrieval,NA,NA,NA,congruent,image276,image276,TRUE,4688.5999999996275
27,1,7,pre,retrieval,NA,NA,NA,incongruent,image399,image399,TRUE,1645.7999999988824
27,1,8,pre,memory,image273,image148,right,incongruent,NA,left,TRUE,1775.7000000011176
27,1,8,pre,memory,image160,image401,right,congruent,NA,right,TRUE,1752.2000000011176
27,1,8,pre,memory,image88,image144,right,congruent,NA,NULL,FALSE,NA
27,1,8,pre,retrieval,NA,NA,NA,incongruent,image148,image148,TRUE,3317.60000000149
27,1,8,pre,retrieval,NA,NA,NA,congruent,image401,image401,TRUE,1354
27,1,8,pre,retrieval,NA,NA,NA,congruent,image144,image144,TRUE,1108
27,1,9,pre,memory,image83,image99,right,incongruent,NA,NULL,FALSE,NA
27,1,9,pre,memory,image178,image251,left,congruent,NA,left,TRUE,1707.5
27,1,9,pre,memory,image306,image199,right,incongruent,NA,left,TRUE,1546.5
27,1,9,pre,retrieval,NA,NA,NA,congruent,image178,image178,TRUE,3446.7000000011176
27,1,9,pre,retrieval,NA,NA,NA,incongruent,image99,image99,TRUE,1075.5999999996275
27,1,9,pre,retrieval,NA,NA,NA,incongruent,image199,image199,TRUE,1336.9000000003725
27,1,10,pre,memory,image335,image24,left,incongruent,NA,left,FALSE,1647.5
27,1,10,pre,memory,image253,image17,left,congruent,NA,left,TRUE,1555.8999999985099
27,1,10,pre,memory,image388,image422,left,congruent,NA,NULL,FALSE,NA
27,1,10,pre,retrieval,NA,NA,NA,congruent,image388,image388,TRUE,1600.7999999988824
27,1,10,pre,retrieval,NA,NA,NA,incongruent,image335,image335,TRUE,3020.2999999988824
27,1,10,pre,retrieval,NA,NA,NA,congruent,image253,image253,TRUE,937.5
27,1,11,pre,memory,image298,image212,left,incongruent,NA,NULL,FALSE,NA
27,1,11,pre,memory,image241,image332,right,incongruent,NA,NULL,FALSE,NA
27,1,11,pre,memory,image147,image307,right,congruent,NA,NULL,FALSE,NA
27,1,11,pre,retrieval,NA,NA,NA,incongruent,image332,image332,TRUE,1409.3999999985099
27,1,11,pre,retrieval,NA,NA,NA,incongruent,image298,image298,TRUE,3008.199999999255
27,1,11,pre,retrieval,NA,NA,NA,congruent,image307,image307,TRUE,3027.699999999255
27,1,12,pre,memory,image426,image324,left,congruent,NA,NULL,FALSE,NA
27,1,12,pre,memory,image397,image176,left,incongruent,NA,NULL,FALSE,NA
27,1,12,pre,memory,image167,image257,left,incongruent,NA,NULL,FALSE,NA
27,1,12,pre,retrieval,NA,NA,NA,incongruent,image167,image167,TRUE,1415.7000000011176
27,1,12,pre,retrieval,NA,NA,NA,congruent,image426,image397,FALSE,2304.5
27,1,12,pre,retrieval,NA,NA,NA,incongruent,image397,image426,FALSE,1180.4000000003725
27,1,13,pre,memory,image101,image300,right,congruent,NA,right,TRUE,1384.199999999255
27,1,13,pre,memory,image228,image179,right,incongruent,NA,right,FALSE,1324.5999999996275
27,1,13,pre,memory,image168,image106,right,congruent,NA,NULL,FALSE,NA
27,1,13,pre,retrieval,NA,NA,NA,congruent,image106,image106,TRUE,1487.300000000745
27,1,13,pre,retrieval,NA,NA,NA,incongruent,image179,image179,TRUE,1190.800000000745
27,1,13,pre,retrieval,NA,NA,NA,congruent,image300,image300,TRUE,2233.4000000003725
27,1,14,pre,memory,image193,image166,right,incongruent,NA,NULL,FALSE,NA
27,1,14,pre,memory,image237,image317,right,incongruent,NA,NULL,FALSE,NA
27,1,14,pre,memory,image218,image413,left,incongruent,NA,NULL,FALSE,NA
27,1,14,pre,retrieval,NA,NA,NA,incongruent,image317,image317,TRUE,2338.9000000003725
27,1,14,pre,retrieval,NA,NA,NA,incongruent,image166,image166,TRUE,1936.800000000745
27,1,14,pre,retrieval,NA,NA,NA,incongruent,image218,image218,TRUE,740.8000000007451
27,1,15,pre,memory,image143,image214,right,congruent,NA,right,TRUE,1359.8999999985099
27,1,15,pre,memory,image226,image329,left,congruent,NA,left,TRUE,1517.6000000014901
27,1,15,pre,memory,image259,image78,right,congruent,NA,right,TRUE,1395.2999999988824
27,1,15,pre,retrieval,NA,NA,NA,congruent,image214,image214,TRUE,3070.4000000003725
27,1,15,pre,retrieval,NA,NA,NA,congruent,image78,image78,TRUE,6462.5999999996275
27,1,15,pre,retrieval,NA,NA,NA,congruent,image226,image226,TRUE,851.6999999992549
27,1,16,pre,memory,image288,image233,right,incongruent,NA,right,FALSE,1726.7000000011176
27,1,16,pre,memory,image285,image39,left,congruent,NA,left,TRUE,1269.7000000011176
27,1,16,pre,memory,image373,image235,right,incongruent,NA,NULL,FALSE,NA
27,1,16,pre,retrieval,NA,NA,NA,incongruent,image235,image235,TRUE,1855.5
27,1,16,pre,retrieval,NA,NA,NA,congruent,image285,image285,TRUE,1912.7999999988824
27,1,16,pre,retrieval,NA,NA,NA,incongruent,image233,image233,TRUE,1650.7000000011176
27,1,17,pre,memory,image118,image414,left,incongruent,NA,right,TRUE,1412.800000000745
27,1,17,pre,memory,image79,image349,left,congruent,NA,left,TRUE,1613.8999999985099
27,1,17,pre,memory,image195,image272,left,congruent,NA,left,TRUE,1286.0999999996275
27,1,17,pre,retrieval,NA,NA,NA,congruent,image195,image195,TRUE,2265.699999999255
27,1,17,pre,retrieval,NA,NA,NA,incongruent,image118,image118,TRUE,2176.7999999988824
27,1,17,pre,retrieval,NA,NA,NA,congruent,image79,image79,TRUE,854.7999999988824
27,1,18,pre,memory,image124,image396,left,congruent,NA,left,TRUE,1312.699999999255
27,1,18,pre,memory,image229,image20,left,congruent,NA,left,TRUE,1227.199999999255
27,1,18,pre,memory,image211,image293,left,incongruent,NA,NULL,FALSE,NA
27,1,18,pre,retrieval,NA,NA,NA,incongruent,image211,image211,TRUE,1163.699999999255
27,1,18,pre,retrieval,NA,NA,NA,congruent,image124,image124,TRUE,1731.6000000014901
27,1,18,pre,retrieval,NA,NA,NA,congruent,image229,image229,TRUE,4219.199999999255
27,1,19,pre,memory,image230,image82,left,congruent,NA,left,TRUE,1257.5999999996275
27,1,19,pre,memory,image379,image247,left,incongruent,NA,left,FALSE,1894
27,1,19,pre,memory,image407,image136,left,incongruent,NA,left,FALSE,1352.9000000003725
27,1,19,pre,retrieval,NA,NA,NA,incongruent,image407,image407,TRUE,1734.3999999985099
27,1,19,pre,retrieval,NA,NA,NA,incongruent,image379,image379,TRUE,797.5
27,1,19,pre,retrieval,NA,NA,NA,congruent,image230,image230,TRUE,1714.9000000003725
27,1,20,pre,memory,image22,image103,left,incongruent,NA,left,FALSE,1534.199999999255
27,1,20,pre,memory,image385,image357,right,incongruent,NA,right,FALSE,1610.0999999996275
27,1,20,pre,memory,image356,image403,right,congruent,NA,right,TRUE,1543.199999999255
27,1,20,pre,retrieval,NA,NA,NA,congruent,image403,image403,TRUE,1872.800000000745
27,1,20,pre,retrieval,NA,NA,NA,incongruent,image357,image357,TRUE,1829.4000000003725
27,1,20,pre,retrieval,NA,NA,NA,incongruent,image22,image22,TRUE,1322.1000000014901
27,2,1,control,memory,image142,image26,left,incongruent,NA,NULL,FALSE,NA
27,2,1,control,memory,image393,image26,left,congruent,NA,left,TRUE,1453.4000000003725
27,2,1,control,memory,image38,image26,left,incongruent,NA,right,TRUE,1396.699999999255
27,2,1,control,retrieval,NA,NA,NA,incongruent,image142,image142,TRUE,1997.2999999988824
27,2,1,control,retrieval,NA,NA,NA,congruent,image393,image393,TRUE,1144.4000000003725
27,2,1,control,retrieval,NA,NA,NA,incongruent,image38,image38,TRUE,1287.699999999255
27,2,2,control,memory,image182,image26,left,congruent,NA,left,TRUE,1843.0999999996275
27,2,2,control,memory,image26,image128,right,incongruent,NA,left,TRUE,1227.2000000011176
27,2,2,control,memory,image26,image286,right,congruent,NA,right,TRUE,1109.5999999996275
27,2,2,control,retrieval,NA,NA,NA,congruent,image182,image182,TRUE,2761.4000000003725
27,2,2,control,retrieval,NA,NA,NA,congruent,image286,image286,TRUE,2518.800000000745
27,2,2,control,retrieval,NA,NA,NA,incongruent,image128,image128,TRUE,861
27,2,3,control,memory,image26,image222,right,congruent,NA,right,TRUE,1422.0999999996275
27,2,3,control,memory,image26,image16,right,congruent,NA,right,TRUE,1719.4000000003725
27,2,3,control,memory,image152,image26,left,congruent,NA,left,TRUE,1342.2999999988824
27,2,3,control,retrieval,NA,NA,NA,congruent,image152,image152,TRUE,1548.7000000011176
27,2,3,control,retrieval,NA,NA,NA,congruent,image16,image16,TRUE,1019.8000000007451
27,2,3,control,retrieval,NA,NA,NA,congruent,image222,image222,TRUE,1436.0999999996275
27,2,4,control,memory,image60,image26,left,congruent,NA,NULL,FALSE,NA
27,2,4,control,memory,image425,image26,left,congruent,NA,left,TRUE,1313.0999999996275
27,2,4,control,memory,image26,image198,right,incongruent,NA,left,TRUE,1993.4000000003725
27,2,4,control,retrieval,NA,NA,NA,congruent,image425,image425,TRUE,2577.5
27,2,4,control,retrieval,NA,NA,NA,incongruent,image198,image198,TRUE,1543.0999999996275
27,2,4,control,retrieval,NA,NA,NA,congruent,image60,image60,TRUE,1378.9000000003725
27,2,5,control,memory,image26,image416,right,congruent,NA,right,TRUE,1342.7000000011176
27,2,5,control,memory,image26,image365,right,incongruent,NA,left,TRUE,1594.6000000014901
27,2,5,control,memory,image26,image112,right,incongruent,NA,left,TRUE,1796.699999999255
27,2,5,control,retrieval,NA,NA,NA,congruent,image416,image416,TRUE,2741
27,2,5,control,retrieval,NA,NA,NA,incongruent,image365,image365,TRUE,3940.699999999255
27,2,5,control,retrieval,NA,NA,NA,incongruent,image112,image112,TRUE,3408.699999999255
27,2,6,control,memory,image93,image26,left,incongruent,NA,right,TRUE,1899.300000000745
27,2,6,control,memory,image320,image26,left,congruent,NA,left,TRUE,1536.3999999985099
27,2,6,control,memory,image26,image410,right,incongruent,NA,NULL,FALSE,NA
27,2,6,control,retrieval,NA,NA,NA,incongruent,image93,image93,TRUE,1930.7999999988824
27,2,6,control,retrieval,NA,NA,NA,incongruent,image410,image320,FALSE,1299.199999999255
27,2,6,control,retrieval,NA,NA,NA,congruent,image320,image410,FALSE,1640.800000000745
27,2,7,control,memory,image295,image26,left,incongruent,NA,right,TRUE,1637.9000000003725
27,2,7,control,memory,image110,image26,left,incongruent,NA,right,TRUE,1653
27,2,7,control,memory,image26,image77,right,congruent,NA,right,TRUE,1668.0999999996275
27,2,7,control,retrieval,NA,NA,NA,congruent,image77,image77,TRUE,1598.699999999255
27,2,7,control,retrieval,NA,NA,NA,incongruent,image110,image110,TRUE,2818.2000000011176
27,2,7,control,retrieval,NA,NA,NA,incongruent,image295,image295,TRUE,5868.9000000003725
27,2,8,control,memory,image28,image26,left,incongruent,NA,left,FALSE,1433.199999999255
27,2,8,control,memory,image188,image26,left,incongruent,NA,right,TRUE,1964.9000000003725
27,2,8,control,memory,image61,image26,left,incongruent,NA,NULL,FALSE,NA
27,2,8,control,retrieval,NA,NA,NA,incongruent,image28,image28,TRUE,1811.699999999255
27,2,8,control,retrieval,NA,NA,NA,incongruent,image188,image188,TRUE,1521.9000000003725
